thisRow.t,notes,waiting_for_trigger_text.started,trigger.started,trigger.keys,trigger.rt,countdown.started,trial.stopped,stimuli.started,condition,stim_name,participant,run,user,date,expName,psychopyVersion,frameRate,
,,680.8368657430001,680.8368657430001,t,14.910523491998902,,,,,,bb98,5,vpnl,2024-02-18_15h53.52.794,alternatingbabyloc,2023.2.2,86.68938500864849,
,,,,,,695.7810380150004,20.967301567001414,701.8333080659977,1,blank.mp4,bb98,5,vpnl,2024-02-18_15h53.52.794,alternatingbabyloc,2023.2.2,86.68938500864849,
,,,,,,,,705.987018066,2,blank.mp4,bb98,5,vpnl,2024-02-18_15h53.52.794,alternatingbabyloc,2023.2.2,86.68938500864849,
,,,,,,,,709.9515845280002,3,volcano_3.mp4,bb98,5,vpnl,2024-02-18_15h53.52.794,alternatingbabyloc,2023.2.2,86.68938500864849,
,,,,,,,,713.9680110629997,4,car7_1.mp4,bb98,5,vpnl,2024-02-18_15h53.52.794,alternatingbabyloc,2023.2.2,86.68938500864849,
,,,,,,,,717.9479318859994,5,KP_hands_3.mp4,bb98,5,vpnl,2024-02-18_15h53.52.794,alternatingbabyloc,2023.2.2,86.68938500864849,
,,,,,,,,721.994728624999,6,SS_faces_2.mp4,bb98,5,vpnl,2024-02-18_15h53.52.794,alternatingbabyloc,2023.2.2,86.68938500864849,
,,,,,,,,725.9510796469986,7,KW_hands_2.mp4,bb98,5,vpnl,2024-02-18_15h53.52.794,alternatingbabyloc,2023.2.2,86.68938500864849,
,,,,,,,,729.9572747819984,8,dumptruck9_1.mp4,bb98,5,vpnl,2024-02-18_15h53.52.794,alternatingbabyloc,2023.2.2,86.68938500864849,
,,,,,,,,733.9572708669984,9,JY_faces_4.mp4,bb98,5,vpnl,2024-02-18_15h53.52.794,alternatingbabyloc,2023.2.2,86.68938500864849,
,,,,,,,,737.9407635909993,10,blank.mp4,bb98,5,vpnl,2024-02-18_15h53.52.794,alternatingbabyloc,2023.2.2,86.68938500864849,
,,,,,,,,741.9765069889982,11,sky_1.mp4,bb98,5,vpnl,2024-02-18_15h53.52.794,alternatingbabyloc,2023.2.2,86.68938500864849,
,,,,,,,,745.9499203089981,12,car3_1.mp4,bb98,5,vpnl,2024-02-18_15h53.52.794,alternatingbabyloc,2023.2.2,86.68938500864849,
,,,,,,,,749.9917082319989,13,forest_2.mp4,bb98,5,vpnl,2024-02-18_15h53.52.794,alternatingbabyloc,2023.2.2,86.68938500864849,
,,,,,,,,753.9592335999987,14,blank.mp4,bb98,5,vpnl,2024-02-18_15h53.52.794,alternatingbabyloc,2023.2.2,86.68938500864849,
,,,,,,,,757.9520880749988,15,DO_faces_2.mp4,bb98,5,vpnl,2024-02-18_15h53.52.794,alternatingbabyloc,2023.2.2,86.68938500864849,
,,,,,,,,761.9299961209981,16,JY_hands_3.mp4,bb98,5,vpnl,2024-02-18_15h53.52.794,alternatingbabyloc,2023.2.2,86.68938500864849,
,,,,,,,,765.9681762219989,17,dumptruck2_1.mp4,bb98,5,vpnl,2024-02-18_15h53.52.794,alternatingbabyloc,2023.2.2,86.68938500864849,
,,,,,,,,769.981730137999,18,BP_hands_3.mp4,bb98,5,vpnl,2024-02-18_15h53.52.794,alternatingbabyloc,2023.2.2,86.68938500864849,
,,,,,,,,773.9533300209987,19,rockystream_2.mp4,bb98,5,vpnl,2024-02-18_15h53.52.794,alternatingbabyloc,2023.2.2,86.68938500864849,
,,,,,,,,777.9444305709985,20,blank.mp4,bb98,5,vpnl,2024-02-18_15h53.52.794,alternatingbabyloc,2023.2.2,86.68938500864849,
,,,,,,,,781.9239666040012,21,JC_faces_3.mp4,bb98,5,vpnl,2024-02-18_15h53.52.794,alternatingbabyloc,2023.2.2,86.68938500864849,
,,,,,,,,785.9798127190006,22,grass_3.mp4,bb98,5,vpnl,2024-02-18_15h53.52.794,alternatingbabyloc,2023.2.2,86.68938500864849,
,,,,,,,,789.9711208189983,23,SS_hands_1.mp4,bb98,5,vpnl,2024-02-18_15h53.52.794,alternatingbabyloc,2023.2.2,86.68938500864849,
,,,,,,,,793.9760893649982,24,blank.mp4,bb98,5,vpnl,2024-02-18_15h53.52.794,alternatingbabyloc,2023.2.2,86.68938500864849,
,,,,,,,,797.9657925639985,25,BS_faces_2.mp4,bb98,5,vpnl,2024-02-18_15h53.52.794,alternatingbabyloc,2023.2.2,86.68938500864849,
,,,,,,,,801.9763579520004,26,racecar_1.mp4,bb98,5,vpnl,2024-02-18_15h53.52.794,alternatingbabyloc,2023.2.2,86.68938500864849,
,,,,,,,,805.9362859049979,27,EC_faces_2.mp4,bb98,5,vpnl,2024-02-18_15h53.52.794,alternatingbabyloc,2023.2.2,86.68938500864849,
,,,,,,,,809.9500266270006,28,snow_1.mp4,bb98,5,vpnl,2024-02-18_15h53.52.794,alternatingbabyloc,2023.2.2,86.68938500864849,
,,,,,,,,813.9660987629977,29,AX_hands_3.mp4,bb98,5,vpnl,2024-02-18_15h53.52.794,alternatingbabyloc,2023.2.2,86.68938500864849,
,,,,,,,,817.9757091780011,30,dumptruck1_1.mp4,bb98,5,vpnl,2024-02-18_15h53.52.794,alternatingbabyloc,2023.2.2,86.68938500864849,
,,,,,,,,821.9612803780001,31,blank.mp4,bb98,5,vpnl,2024-02-18_15h53.52.794,alternatingbabyloc,2023.2.2,86.68938500864849,
,,,,,,,,825.9836118470012,32,blueexcavator_4.mp4,bb98,5,vpnl,2024-02-18_15h53.52.794,alternatingbabyloc,2023.2.2,86.68938500864849,
,,,,,,,,829.9483494999986,33,river_2.mp4,bb98,5,vpnl,2024-02-18_15h53.52.794,alternatingbabyloc,2023.2.2,86.68938500864849,
,,,,,,,,833.9436356000006,34,JO_hands_2.mp4,bb98,5,vpnl,2024-02-18_15h53.52.794,alternatingbabyloc,2023.2.2,86.68938500864849,
,,,,,,,,837.9615126139979,35,AX_faces_2.mp4,bb98,5,vpnl,2024-02-18_15h53.52.794,alternatingbabyloc,2023.2.2,86.68938500864849,
,,,,,,,,841.9678450319989,36,blank.mp4,bb98,5,vpnl,2024-02-18_15h53.52.794,alternatingbabyloc,2023.2.2,86.68938500864849,
,,,,,,,,845.9841895169993,37,KW_faces_1.mp4,bb98,5,vpnl,2024-02-18_15h53.52.794,alternatingbabyloc,2023.2.2,86.68938500864849,
,,,,,,,,849.940830255,38,rccar_1.mp4,bb98,5,vpnl,2024-02-18_15h53.52.794,alternatingbabyloc,2023.2.2,86.68938500864849,
,,,,,,,,853.9598639579999,39,EC_hands_1.mp4,bb98,5,vpnl,2024-02-18_15h53.52.794,alternatingbabyloc,2023.2.2,86.68938500864849,
,,,,,,,,857.9752445560007,40,waterfallpond_1.mp4,bb98,5,vpnl,2024-02-18_15h53.52.794,alternatingbabyloc,2023.2.2,86.68938500864849,
,,,,,,,,861.9626427519979,41,blank.mp4,bb98,5,vpnl,2024-02-18_15h53.52.794,alternatingbabyloc,2023.2.2,86.68938500864849,
,,,,,,,,865.951320281998,42,SE_hands_1.mp4,bb98,5,vpnl,2024-02-18_15h53.52.794,alternatingbabyloc,2023.2.2,86.68938500864849,
,,,,,,,,870.0032395210001,43,HO_faces_3.mp4,bb98,5,vpnl,2024-02-18_15h53.52.794,alternatingbabyloc,2023.2.2,86.68938500864849,
,,,,,,,,873.9375096090007,44,blank.mp4,bb98,5,vpnl,2024-02-18_15h53.52.794,alternatingbabyloc,2023.2.2,86.68938500864849,
,,,,,,,,877.9626211850009,45,bigwaterfall_3.mp4,bb98,5,vpnl,2024-02-18_15h53.52.794,alternatingbabyloc,2023.2.2,86.68938500864849,
,,,,,,,,881.9760970589996,46,dumptruck5_1.mp4,bb98,5,vpnl,2024-02-18_15h53.52.794,alternatingbabyloc,2023.2.2,86.68938500864849,
,,,,,,,,885.9391184849992,47,KP_faces_3.mp4,bb98,5,vpnl,2024-02-18_15h53.52.794,alternatingbabyloc,2023.2.2,86.68938500864849,
,,,,,,,,889.9594684900003,48,car6_1.mp4,bb98,5,vpnl,2024-02-18_15h53.52.794,alternatingbabyloc,2023.2.2,86.68938500864849,
,,,,,,,,893.9449050900002,49,blank.mp4,bb98,5,vpnl,2024-02-18_15h53.52.794,alternatingbabyloc,2023.2.2,86.68938500864849,
,,,,,,,,898.002064078999,50,trees_1.mp4,bb98,5,vpnl,2024-02-18_15h53.52.794,alternatingbabyloc,2023.2.2,86.68938500864849,
,,,,,,,,901.9462671330002,51,JC_hands_2.mp4,bb98,5,vpnl,2024-02-18_15h53.52.794,alternatingbabyloc,2023.2.2,86.68938500864849,
,,,,,,,,905.9473318540004,52,blank.mp4,,,,,,,,
