thisRow.t,notes,waiting_for_trigger_text.started,trigger.started,trigger.keys,trigger.rt,countdown.started,trial.stopped,stimuli.started,condition,stim_name,participant,run,user,date,expName,psychopyVersion,frameRate,
,,80.53055817199856,80.53055817199856,t,30.03568160299983,,,,,,bb98,5,vpnl,2024-02-18_15h53.52.794,alternatingbabyloc,2023.2.2,86.68938500864849,
,,,,,,110.59363146100077,36.06908717999977,116.65469886600113,1,blank.mp4,bb98,5,vpnl,2024-02-18_15h53.52.794,alternatingbabyloc,2023.2.2,86.68938500864849,
,,,,,,,,120.74703362600121,2,blank.mp4,bb98,5,vpnl,2024-02-18_15h53.52.794,alternatingbabyloc,2023.2.2,86.68938500864849,
,,,,,,,,124.77057126100044,3,EC_hands_1.mp4,bb98,5,vpnl,2024-02-18_15h53.52.794,alternatingbabyloc,2023.2.2,86.68938500864849,
,,,,,,,,128.75380979599868,4,dumptruck7_1.mp4,bb98,5,vpnl,2024-02-18_15h53.52.794,alternatingbabyloc,2023.2.2,86.68938500864849,
,,,,,,,,132.7412063289994,5,EC_faces_2.mp4,bb98,5,vpnl,2024-02-18_15h53.52.794,alternatingbabyloc,2023.2.2,86.68938500864849,
,,,,,,,,136.76155561999985,6,waterfallpond_1.mp4,bb98,5,vpnl,2024-02-18_15h53.52.794,alternatingbabyloc,2023.2.2,86.68938500864849,
,,,,,,,,140.7467459949985,7,KW_faces_1.mp4,bb98,5,vpnl,2024-02-18_15h53.52.794,alternatingbabyloc,2023.2.2,86.68938500864849,
,,,,,,,,144.7418461640009,8,car4_1.mp4,bb98,5,vpnl,2024-02-18_15h53.52.794,alternatingbabyloc,2023.2.2,86.68938500864849,
,,,,,,,,148.73599213999842,9,KP_hands_1.mp4,bb98,5,vpnl,2024-02-18_15h53.52.794,alternatingbabyloc,2023.2.2,86.68938500864849,
,,,,,,,,152.77473726400058,10,grass_3.mp4,bb98,5,vpnl,2024-02-18_15h53.52.794,alternatingbabyloc,2023.2.2,86.68938500864849,
,,,,,,,,156.7410137099978,11,blank.mp4,bb98,5,vpnl,2024-02-18_15h53.52.794,alternatingbabyloc,2023.2.2,86.68938500864849,
,,,,,,,,160.7837064899977,12,JO_faces_2.mp4,bb98,5,vpnl,2024-02-18_15h53.52.794,alternatingbabyloc,2023.2.2,86.68938500864849,
,,,,,,,,164.75334932199985,13,SS_hands_3.mp4,bb98,5,vpnl,2024-02-18_15h53.52.794,alternatingbabyloc,2023.2.2,86.68938500864849,
,,,,,,,,168.77249011499953,14,river_1.mp4,bb98,5,vpnl,2024-02-18_15h53.52.794,alternatingbabyloc,2023.2.2,86.68938500864849,
,,,,,,,,172.7581621620011,15,dumptruck5_1.mp4,bb98,5,vpnl,2024-02-18_15h53.52.794,alternatingbabyloc,2023.2.2,86.68938500864849,
,,,,,,,,176.74440746899927,16,blank.mp4,bb98,5,vpnl,2024-02-18_15h53.52.794,alternatingbabyloc,2023.2.2,86.68938500864849,
,,,,,,,,180.76603795199844,17,forest_1.mp4,bb98,5,vpnl,2024-02-18_15h53.52.794,alternatingbabyloc,2023.2.2,86.68938500864849,
,,,,,,,,184.753332201999,18,blank.mp4,bb98,5,vpnl,2024-02-18_15h53.52.794,alternatingbabyloc,2023.2.2,86.68938500864849,
,,,,,,,,188.74666140299814,19,JC_hands_2.mp4,bb98,5,vpnl,2024-02-18_15h53.52.794,alternatingbabyloc,2023.2.2,86.68938500864849,
,,,,,,,,192.7545284379994,20,dumptruck1_1.mp4,bb98,5,vpnl,2024-02-18_15h53.52.794,alternatingbabyloc,2023.2.2,86.68938500864849,
,,,,,,,,196.7408399579981,21,JY_faces_4.mp4,bb98,5,vpnl,2024-02-18_15h53.52.794,alternatingbabyloc,2023.2.2,86.68938500864849,
,,,,,,,,200.74964871200063,22,blank.mp4,bb98,5,vpnl,2024-02-18_15h53.52.794,alternatingbabyloc,2023.2.2,86.68938500864849,
,,,,,,,,204.73203635299797,23,KW_hands_1.mp4,bb98,5,vpnl,2024-02-18_15h53.52.794,alternatingbabyloc,2023.2.2,86.68938500864849,
,,,,,,,,208.7437552880001,24,sky_1.mp4,bb98,5,vpnl,2024-02-18_15h53.52.794,alternatingbabyloc,2023.2.2,86.68938500864849,
,,,,,,,,212.7448686639982,25,dumptruck2_1.mp4,bb98,5,vpnl,2024-02-18_15h53.52.794,alternatingbabyloc,2023.2.2,86.68938500864849,
,,,,,,,,216.73677164900073,26,DO_faces_4.mp4,bb98,5,vpnl,2024-02-18_15h53.52.794,alternatingbabyloc,2023.2.2,86.68938500864849,
,,,,,,,,220.77680033999786,27,dumptruck9_1.mp4,bb98,5,vpnl,2024-02-18_15h53.52.794,alternatingbabyloc,2023.2.2,86.68938500864849,
,,,,,,,,224.7533837339979,28,shore_1.mp4,bb98,5,vpnl,2024-02-18_15h53.52.794,alternatingbabyloc,2023.2.2,86.68938500864849,
,,,,,,,,228.73428458899798,29,KP_faces_4.mp4,bb98,5,vpnl,2024-02-18_15h53.52.794,alternatingbabyloc,2023.2.2,86.68938500864849,
,,,,,,,,232.77705732699906,30,BP_hands_1.mp4,bb98,5,vpnl,2024-02-18_15h53.52.794,alternatingbabyloc,2023.2.2,86.68938500864849,
,,,,,,,,236.77339203500014,31,blank.mp4,bb98,5,vpnl,2024-02-18_15h53.52.794,alternatingbabyloc,2023.2.2,86.68938500864849,
,,,,,,,,240.78375007000068,32,SS_faces_2.mp4,bb98,5,vpnl,2024-02-18_15h53.52.794,alternatingbabyloc,2023.2.2,86.68938500864849,
,,,,,,,,244.75880459499967,33,blank.mp4,bb98,5,vpnl,2024-02-18_15h53.52.794,alternatingbabyloc,2023.2.2,86.68938500864849,
,,,,,,,,248.738847755998,34,JY_hands_4.mp4,bb98,5,vpnl,2024-02-18_15h53.52.794,alternatingbabyloc,2023.2.2,86.68938500864849,
,,,,,,,,252.7823300179989,35,car2_1.mp4,bb98,5,vpnl,2024-02-18_15h53.52.794,alternatingbabyloc,2023.2.2,86.68938500864849,
,,,,,,,,256.7700768709983,36,bigwaterfall_3.mp4,bb98,5,vpnl,2024-02-18_15h53.52.794,alternatingbabyloc,2023.2.2,86.68938500864849,
,,,,,,,,260.7666571379996,37,JO_hands_3.mp4,bb98,5,vpnl,2024-02-18_15h53.52.794,alternatingbabyloc,2023.2.2,86.68938500864849,
,,,,,,,,264.7441211100013,38,AX_faces_3.mp4,bb98,5,vpnl,2024-02-18_15h53.52.794,alternatingbabyloc,2023.2.2,86.68938500864849,
,,,,,,,,268.7523809080012,39,trees_2.mp4,bb98,5,vpnl,2024-02-18_15h53.52.794,alternatingbabyloc,2023.2.2,86.68938500864849,
,,,,,,,,272.76952661500036,40,car1_1.mp4,bb98,5,vpnl,2024-02-18_15h53.52.794,alternatingbabyloc,2023.2.2,86.68938500864849,
,,,,,,,,276.7701673529991,41,blank.mp4,bb98,5,vpnl,2024-02-18_15h53.52.794,alternatingbabyloc,2023.2.2,86.68938500864849,
,,,,,,,,280.74678511399907,42,snow_2.mp4,bb98,5,vpnl,2024-02-18_15h53.52.794,alternatingbabyloc,2023.2.2,86.68938500864849,
,,,,,,,,284.7895947199977,43,car3_1.mp4,bb98,5,vpnl,2024-02-18_15h53.52.794,alternatingbabyloc,2023.2.2,86.68938500864849,
,,,,,,,,288.7642675649986,44,AX_hands_3.mp4,bb98,5,vpnl,2024-02-18_15h53.52.794,alternatingbabyloc,2023.2.2,86.68938500864849,
,,,,,,,,292.7543134160005,45,HO_faces_2.mp4,bb98,5,vpnl,2024-02-18_15h53.52.794,alternatingbabyloc,2023.2.2,86.68938500864849,
,,,,,,,,296.76931881400014,46,blank.mp4,bb98,5,vpnl,2024-02-18_15h53.52.794,alternatingbabyloc,2023.2.2,86.68938500864849,
,,,,,,,,300.771717358999,47,BS_hands_3.mp4,bb98,5,vpnl,2024-02-18_15h53.52.794,alternatingbabyloc,2023.2.2,86.68938500864849,
,,,,,,,,304.7486562599988,48,blank.mp4,bb98,5,vpnl,2024-02-18_15h53.52.794,alternatingbabyloc,2023.2.2,86.68938500864849,
,,,,,,,,308.75685378300113,49,smallwaterfall_2.mp4,bb98,5,vpnl,2024-02-18_15h53.52.794,alternatingbabyloc,2023.2.2,86.68938500864849,
,,,,,,,,312.74269885899776,50,SE_faces_3.mp4,bb98,5,vpnl,2024-02-18_15h53.52.794,alternatingbabyloc,2023.2.2,86.68938500864849,
,,,,,,,,316.78919234299974,51,dumptruck6_1.mp4,bb98,5,vpnl,2024-02-18_15h53.52.794,alternatingbabyloc,2023.2.2,86.68938500864849,
,,,,,,,,320.77936740400037,52,volcano_6.mp4,bb98,5,vpnl,2024-02-18_15h53.52.794,alternatingbabyloc,2023.2.2,86.68938500864849,
,,,,,,,,324.78405482200105,53,dumptruck3_1.mp4,bb98,5,vpnl,2024-02-18_15h53.52.794,alternatingbabyloc,2023.2.2,86.68938500864849,
,,,,,,,,328.76532813299855,54,blank.mp4,bb98,5,vpnl,2024-02-18_15h53.52.794,alternatingbabyloc,2023.2.2,86.68938500864849,
,,,,,,,,332.74549165400094,55,SE_hands_3.mp4,bb98,5,vpnl,2024-02-18_15h53.52.794,alternatingbabyloc,2023.2.2,86.68938500864849,
,,,,,,,,336.7834302400006,56,BP_faces_1.mp4,bb98,5,vpnl,2024-02-18_15h53.52.794,alternatingbabyloc,2023.2.2,86.68938500864849,
,,,,,,,,340.7695526669995,57,car8_1.mp4,bb98,5,vpnl,2024-02-18_15h53.52.794,alternatingbabyloc,2023.2.2,86.68938500864849,
,,,,,,,,344.76623418799863,58,IK_faces_3.mp4,bb98,5,vpnl,2024-02-18_15h53.52.794,alternatingbabyloc,2023.2.2,86.68938500864849,
,,,,,,,,348.7707832060005,59,rockystream_2.mp4,bb98,5,vpnl,2024-02-18_15h53.52.794,alternatingbabyloc,2023.2.2,86.68938500864849,
,,,,,,,,352.79562534199795,60,blank.mp4,bb98,5,vpnl,2024-02-18_15h53.52.794,alternatingbabyloc,2023.2.2,86.68938500864849,
,,,,,,,,356.7736081539988,61,HO_hands_3.mp4,bb98,5,vpnl,2024-02-18_15h53.52.794,alternatingbabyloc,2023.2.2,86.68938500864849,
,,,,,,,,360.77936595400024,62,blank.mp4,bb98,5,vpnl,2024-02-18_15h53.52.794,alternatingbabyloc,2023.2.2,86.68938500864849,
