thisRow.t,notes,waiting_for_trigger_text.started,trigger.started,trigger.keys,trigger.rt,countdown.started,trial.stopped,stimuli.started,condition,stim_name,participant,run,user,date,expName,psychopyVersion,frameRate,
,,405.659357479999,405.659357479999,t,4.547301739996328,,,,,,bb98,5,vpnl,2024-02-18_15h53.52.794,alternatingbabyloc,2023.2.2,86.68938500864849,
,,,,,,410.24742763999893,10.583974720000697,416.24734488000104,1,blank-1.jpg,bb98,5,vpnl,2024-02-18_15h53.52.794,alternatingbabyloc,2023.2.2,86.68938500864849,
,,,,,,,,416.74800180500097,1,blank-2.jpg,bb98,5,vpnl,2024-02-18_15h53.52.794,alternatingbabyloc,2023.2.2,86.68938500864849,
,,,,,,,,417.24573414399856,1,blank-3.jpg,bb98,5,vpnl,2024-02-18_15h53.52.794,alternatingbabyloc,2023.2.2,86.68938500864849,
,,,,,,,,417.7452469189993,1,blank-4.jpg,bb98,5,vpnl,2024-02-18_15h53.52.794,alternatingbabyloc,2023.2.2,86.68938500864849,
,,,,,,,,418.2454843429987,1,blank-5.jpg,bb98,5,vpnl,2024-02-18_15h53.52.794,alternatingbabyloc,2023.2.2,86.68938500864849,
,,,,,,,,418.7461973829995,1,blank-6.jpg,bb98,5,vpnl,2024-02-18_15h53.52.794,alternatingbabyloc,2023.2.2,86.68938500864849,
,,,,,,,,419.2457399060004,1,blank-7.jpg,bb98,5,vpnl,2024-02-18_15h53.52.794,alternatingbabyloc,2023.2.2,86.68938500864849,
,,,,,,,,419.74531798099997,1,blank-8.jpg,bb98,5,vpnl,2024-02-18_15h53.52.794,alternatingbabyloc,2023.2.2,86.68938500864849,
,,,,,,,,420.24559802599833,2,cars-1.jpg,bb98,5,vpnl,2024-02-18_15h53.52.794,alternatingbabyloc,2023.2.2,86.68938500864849,
,,,,,,,,420.7460583200009,2,cars-2.jpg,bb98,5,vpnl,2024-02-18_15h53.52.794,alternatingbabyloc,2023.2.2,86.68938500864849,
,,,,,,,,421.24609318999865,2,cars-3.jpg,bb98,5,vpnl,2024-02-18_15h53.52.794,alternatingbabyloc,2023.2.2,86.68938500864849,
,,,,,,,,421.7460805519986,2,cars-4.jpg,bb98,5,vpnl,2024-02-18_15h53.52.794,alternatingbabyloc,2023.2.2,86.68938500864849,
,,,,,,,,422.2457358499996,2,cars-5.jpg,bb98,5,vpnl,2024-02-18_15h53.52.794,alternatingbabyloc,2023.2.2,86.68938500864849,
,,,,,,,,422.7451565779993,2,cars-6.jpg,bb98,5,vpnl,2024-02-18_15h53.52.794,alternatingbabyloc,2023.2.2,86.68938500864849,
,,,,,,,,423.24556432399913,2,cars-7.jpg,bb98,5,vpnl,2024-02-18_15h53.52.794,alternatingbabyloc,2023.2.2,86.68938500864849,
,,,,,,,,423.7453163040009,2,cars-8.jpg,bb98,5,vpnl,2024-02-18_15h53.52.794,alternatingbabyloc,2023.2.2,86.68938500864849,
,,,,,,,,424.2453430200003,3,blank-9.jpg,bb98,5,vpnl,2024-02-18_15h53.52.794,alternatingbabyloc,2023.2.2,86.68938500864849,
,,,,,,,,424.74569353699917,3,blank-10.jpg,bb98,5,vpnl,2024-02-18_15h53.52.794,alternatingbabyloc,2023.2.2,86.68938500864849,
,,,,,,,,425.24633746700056,3,blank-11.jpg,bb98,5,vpnl,2024-02-18_15h53.52.794,alternatingbabyloc,2023.2.2,86.68938500864849,
,,,,,,,,425.7450140660003,3,blank-12.jpg,bb98,5,vpnl,2024-02-18_15h53.52.794,alternatingbabyloc,2023.2.2,86.68938500864849,
,,,,,,,,426.245293349999,3,blank-13.jpg,bb98,5,vpnl,2024-02-18_15h53.52.794,alternatingbabyloc,2023.2.2,86.68938500864849,
,,,,,,,,426.7464237899985,3,blank-14.jpg,bb98,5,vpnl,2024-02-18_15h53.52.794,alternatingbabyloc,2023.2.2,86.68938500864849,
,,,,,,,,427.2459807970008,3,blank-15.jpg,bb98,5,vpnl,2024-02-18_15h53.52.794,alternatingbabyloc,2023.2.2,86.68938500864849,
,,,,,,,,427.745189751,3,blank-16.jpg,bb98,5,vpnl,2024-02-18_15h53.52.794,alternatingbabyloc,2023.2.2,86.68938500864849,
,,,,,,,,428.24534643199877,4,hands-1.jpg,bb98,5,vpnl,2024-02-18_15h53.52.794,alternatingbabyloc,2023.2.2,86.68938500864849,
,,,,,,,,428.7521897980005,4,hands-2.jpg,bb98,5,vpnl,2024-02-18_15h53.52.794,alternatingbabyloc,2023.2.2,86.68938500864849,
,,,,,,,,429.24496247799834,4,hands-3.jpg,bb98,5,vpnl,2024-02-18_15h53.52.794,alternatingbabyloc,2023.2.2,86.68938500864849,
,,,,,,,,429.7464651139999,4,hands-4.jpg,bb98,5,vpnl,2024-02-18_15h53.52.794,alternatingbabyloc,2023.2.2,86.68938500864849,
,,,,,,,,430.2481853319987,4,hands-5.jpg,bb98,5,vpnl,2024-02-18_15h53.52.794,alternatingbabyloc,2023.2.2,86.68938500864849,
,,,,,,,,430.7483006910006,4,hands-6.jpg,bb98,5,vpnl,2024-02-18_15h53.52.794,alternatingbabyloc,2023.2.2,86.68938500864849,
,,,,,,,,431.24780593499963,4,hands-7.jpg,bb98,5,vpnl,2024-02-18_15h53.52.794,alternatingbabyloc,2023.2.2,86.68938500864849,
,,,,,,,,431.747706842998,4,hands-8.jpg,bb98,5,vpnl,2024-02-18_15h53.52.794,alternatingbabyloc,2023.2.2,86.68938500864849,
,,,,,,,,432.24813253699904,5,scenes-1.jpg,bb98,5,vpnl,2024-02-18_15h53.52.794,alternatingbabyloc,2023.2.2,86.68938500864849,
,,,,,,,,432.7481276660001,5,scenes-2.jpg,bb98,5,vpnl,2024-02-18_15h53.52.794,alternatingbabyloc,2023.2.2,86.68938500864849,
,,,,,,,,433.25709845299934,5,scenes-3.jpg,bb98,5,vpnl,2024-02-18_15h53.52.794,alternatingbabyloc,2023.2.2,86.68938500864849,
,,,,,,,,433.7480935169988,5,scenes-4.jpg,bb98,5,vpnl,2024-02-18_15h53.52.794,alternatingbabyloc,2023.2.2,86.68938500864849,
,,,,,,,,434.2473323560007,5,scenes-5.jpg,bb98,5,vpnl,2024-02-18_15h53.52.794,alternatingbabyloc,2023.2.2,86.68938500864849,
,,,,,,,,434.74775225899793,5,scenes-6.jpg,bb98,5,vpnl,2024-02-18_15h53.52.794,alternatingbabyloc,2023.2.2,86.68938500864849,
,,,,,,,,435.2479155729998,5,scenes-7.jpg,bb98,5,vpnl,2024-02-18_15h53.52.794,alternatingbabyloc,2023.2.2,86.68938500864849,
,,,,,,,,435.7478415509977,5,scenes-8.jpg,bb98,5,vpnl,2024-02-18_15h53.52.794,alternatingbabyloc,2023.2.2,86.68938500864849,
,,,,,,,,436.24701164499857,6,faces-1.jpg,bb98,5,vpnl,2024-02-18_15h53.52.794,alternatingbabyloc,2023.2.2,86.68938500864849,
,,,,,,,,436.74760224700003,6,faces-2.jpg,bb98,5,vpnl,2024-02-18_15h53.52.794,alternatingbabyloc,2023.2.2,86.68938500864849,
,,,,,,,,437.24769409500004,6,faces-3.jpg,bb98,5,vpnl,2024-02-18_15h53.52.794,alternatingbabyloc,2023.2.2,86.68938500864849,
,,,,,,,,437.7544295150001,6,faces-4.jpg,bb98,5,vpnl,2024-02-18_15h53.52.794,alternatingbabyloc,2023.2.2,86.68938500864849,
,,,,,,,,438.2480508769986,6,faces-5.jpg,bb98,5,vpnl,2024-02-18_15h53.52.794,alternatingbabyloc,2023.2.2,86.68938500864849,
,,,,,,,,438.74772734699945,6,faces-6.jpg,bb98,5,vpnl,2024-02-18_15h53.52.794,alternatingbabyloc,2023.2.2,86.68938500864849,
,,,,,,,,439.2483870670003,6,faces-7.jpg,bb98,5,vpnl,2024-02-18_15h53.52.794,alternatingbabyloc,2023.2.2,86.68938500864849,
,,,,,,,,439.74768980099907,6,faces-8.jpg,bb98,5,vpnl,2024-02-18_15h53.52.794,alternatingbabyloc,2023.2.2,86.68938500864849,
,,,,,,,,440.25057778599876,7,hands-9.jpg,bb98,5,vpnl,2024-02-18_15h53.52.794,alternatingbabyloc,2023.2.2,86.68938500864849,
,,,,,,,,440.74779064999893,7,hands-10.jpg,bb98,5,vpnl,2024-02-18_15h53.52.794,alternatingbabyloc,2023.2.2,86.68938500864849,
,,,,,,,,441.24662335500034,7,hands-11.jpg,bb98,5,vpnl,2024-02-18_15h53.52.794,alternatingbabyloc,2023.2.2,86.68938500864849,
,,,,,,,,441.7475665509992,7,hands-12.jpg,bb98,5,vpnl,2024-02-18_15h53.52.794,alternatingbabyloc,2023.2.2,86.68938500864849,
,,,,,,,,442.2470090579991,7,hands-13.jpg,bb98,5,vpnl,2024-02-18_15h53.52.794,alternatingbabyloc,2023.2.2,86.68938500864849,
,,,,,,,,442.74766130100033,7,hands-14.jpg,bb98,5,vpnl,2024-02-18_15h53.52.794,alternatingbabyloc,2023.2.2,86.68938500864849,
,,,,,,,,443.24800990199947,7,hands-15.jpg,bb98,5,vpnl,2024-02-18_15h53.52.794,alternatingbabyloc,2023.2.2,86.68938500864849,
,,,,,,,,443.74767251699814,7,hands-16.jpg,bb98,5,vpnl,2024-02-18_15h53.52.794,alternatingbabyloc,2023.2.2,86.68938500864849,
,,,,,,,,444.2481230459998,8,cars-9.jpg,bb98,5,vpnl,2024-02-18_15h53.52.794,alternatingbabyloc,2023.2.2,86.68938500864849,
,,,,,,,,444.74765201300033,8,cars-10.jpg,bb98,5,vpnl,2024-02-18_15h53.52.794,alternatingbabyloc,2023.2.2,86.68938500864849,
,,,,,,,,445.24823866899897,8,cars-11.jpg,bb98,5,vpnl,2024-02-18_15h53.52.794,alternatingbabyloc,2023.2.2,86.68938500864849,
,,,,,,,,445.747175206001,8,cars-12.jpg,bb98,5,vpnl,2024-02-18_15h53.52.794,alternatingbabyloc,2023.2.2,86.68938500864849,
,,,,,,,,446.24684375200013,8,cars-13.jpg,bb98,5,vpnl,2024-02-18_15h53.52.794,alternatingbabyloc,2023.2.2,86.68938500864849,
,,,,,,,,446.7485337750004,8,cars-14.jpg,bb98,5,vpnl,2024-02-18_15h53.52.794,alternatingbabyloc,2023.2.2,86.68938500864849,
,,,,,,,,447.24752927699956,8,cars-15.jpg,bb98,5,vpnl,2024-02-18_15h53.52.794,alternatingbabyloc,2023.2.2,86.68938500864849,
,,,,,,,,447.7478534010006,8,cars-16.jpg,bb98,5,vpnl,2024-02-18_15h53.52.794,alternatingbabyloc,2023.2.2,86.68938500864849,
,,,,,,,,448.2478906549986,9,scenes-9.jpg,bb98,5,vpnl,2024-02-18_15h53.52.794,alternatingbabyloc,2023.2.2,86.68938500864849,
,,,,,,,,448.74699061999854,9,scenes-10.jpg,bb98,5,vpnl,2024-02-18_15h53.52.794,alternatingbabyloc,2023.2.2,86.68938500864849,
,,,,,,,,449.2342039539981,9,scenes-11.jpg,bb98,5,vpnl,2024-02-18_15h53.52.794,alternatingbabyloc,2023.2.2,86.68938500864849,
,,,,,,,,449.74725774499893,9,scenes-12.jpg,bb98,5,vpnl,2024-02-18_15h53.52.794,alternatingbabyloc,2023.2.2,86.68938500864849,
,,,,,,,,450.2468657999998,9,scenes-13.jpg,bb98,5,vpnl,2024-02-18_15h53.52.794,alternatingbabyloc,2023.2.2,86.68938500864849,
,,,,,,,,450.74789735599916,9,scenes-14.jpg,bb98,5,vpnl,2024-02-18_15h53.52.794,alternatingbabyloc,2023.2.2,86.68938500864849,
,,,,,,,,451.2481080459984,9,scenes-15.jpg,bb98,5,vpnl,2024-02-18_15h53.52.794,alternatingbabyloc,2023.2.2,86.68938500864849,
,,,,,,,,451.7474708660011,9,scenes-16.jpg,bb98,5,vpnl,2024-02-18_15h53.52.794,alternatingbabyloc,2023.2.2,86.68938500864849,
,,,,,,,,452.246752594001,10,faces-9.jpg,bb98,5,vpnl,2024-02-18_15h53.52.794,alternatingbabyloc,2023.2.2,86.68938500864849,
,,,,,,,,452.74807071800024,10,faces-10.jpg,bb98,5,vpnl,2024-02-18_15h53.52.794,alternatingbabyloc,2023.2.2,86.68938500864849,
,,,,,,,,453.24747334600033,10,faces-11.jpg,bb98,5,vpnl,2024-02-18_15h53.52.794,alternatingbabyloc,2023.2.2,86.68938500864849,
,,,,,,,,453.75555392800015,10,faces-12.jpg,bb98,5,vpnl,2024-02-18_15h53.52.794,alternatingbabyloc,2023.2.2,86.68938500864849,
,,,,,,,,454.2468179009993,10,faces-13.jpg,bb98,5,vpnl,2024-02-18_15h53.52.794,alternatingbabyloc,2023.2.2,86.68938500864849,
,,,,,,,,454.7475850810006,10,faces-14.jpg,bb98,5,vpnl,2024-02-18_15h53.52.794,alternatingbabyloc,2023.2.2,86.68938500864849,
,,,,,,,,455.2474227979983,10,faces-15.jpg,bb98,5,vpnl,2024-02-18_15h53.52.794,alternatingbabyloc,2023.2.2,86.68938500864849,
,,,,,,,,455.74669501099925,10,faces-16.jpg,bb98,5,vpnl,2024-02-18_15h53.52.794,alternatingbabyloc,2023.2.2,86.68938500864849,
,,,,,,,,456.2466106549982,11,blank-17.jpg,bb98,5,vpnl,2024-02-18_15h53.52.794,alternatingbabyloc,2023.2.2,86.68938500864849,
,,,,,,,,456.74674020100065,11,blank-18.jpg,bb98,5,vpnl,2024-02-18_15h53.52.794,alternatingbabyloc,2023.2.2,86.68938500864849,
,,,,,,,,457.2470774680005,11,blank-19.jpg,bb98,5,vpnl,2024-02-18_15h53.52.794,alternatingbabyloc,2023.2.2,86.68938500864849,
,,,,,,,,457.7475745089978,11,blank-20.jpg,bb98,5,vpnl,2024-02-18_15h53.52.794,alternatingbabyloc,2023.2.2,86.68938500864849,
,,,,,,,,458.2476851190004,11,blank-21.jpg,bb98,5,vpnl,2024-02-18_15h53.52.794,alternatingbabyloc,2023.2.2,86.68938500864849,
,,,,,,,,458.74714474600114,11,blank-22.jpg,bb98,5,vpnl,2024-02-18_15h53.52.794,alternatingbabyloc,2023.2.2,86.68938500864849,
,,,,,,,,459.2476733709991,11,blank-23.jpg,bb98,5,vpnl,2024-02-18_15h53.52.794,alternatingbabyloc,2023.2.2,86.68938500864849,
,,,,,,,,459.74659358699864,11,blank-24.jpg,bb98,5,vpnl,2024-02-18_15h53.52.794,alternatingbabyloc,2023.2.2,86.68938500864849,
,,,,,,,,460.24649812499774,12,scenes-17.jpg,bb98,5,vpnl,2024-02-18_15h53.52.794,alternatingbabyloc,2023.2.2,86.68938500864849,
,,,,,,,,460.74635891199796,12,scenes-18.jpg,bb98,5,vpnl,2024-02-18_15h53.52.794,alternatingbabyloc,2023.2.2,86.68938500864849,
,,,,,,,,461.2472591650003,12,scenes-19.jpg,bb98,5,vpnl,2024-02-18_15h53.52.794,alternatingbabyloc,2023.2.2,86.68938500864849,
,,,,,,,,461.74690699799976,12,scenes-20.jpg,bb98,5,vpnl,2024-02-18_15h53.52.794,alternatingbabyloc,2023.2.2,86.68938500864849,
,,,,,,,,462.2466452189983,12,scenes-21.jpg,bb98,5,vpnl,2024-02-18_15h53.52.794,alternatingbabyloc,2023.2.2,86.68938500864849,
,,,,,,,,462.7464166009995,12,scenes-22.jpg,bb98,5,vpnl,2024-02-18_15h53.52.794,alternatingbabyloc,2023.2.2,86.68938500864849,
,,,,,,,,463.24744866699984,12,scenes-23.jpg,bb98,5,vpnl,2024-02-18_15h53.52.794,alternatingbabyloc,2023.2.2,86.68938500864849,
,,,,,,,,463.7471868040011,12,scenes-24.jpg,bb98,5,vpnl,2024-02-18_15h53.52.794,alternatingbabyloc,2023.2.2,86.68938500864849,
,,,,,,,,464.2474242540011,13,faces-17.jpg,bb98,5,vpnl,2024-02-18_15h53.52.794,alternatingbabyloc,2023.2.2,86.68938500864849,
,,,,,,,,464.7468793359985,13,faces-18.jpg,bb98,5,vpnl,2024-02-18_15h53.52.794,alternatingbabyloc,2023.2.2,86.68938500864849,
,,,,,,,,465.24712028700014,13,faces-19.jpg,bb98,5,vpnl,2024-02-18_15h53.52.794,alternatingbabyloc,2023.2.2,86.68938500864849,
,,,,,,,,465.7473959819981,13,faces-20.jpg,bb98,5,vpnl,2024-02-18_15h53.52.794,alternatingbabyloc,2023.2.2,86.68938500864849,
,,,,,,,,466.24667993500043,13,faces-21.jpg,bb98,5,vpnl,2024-02-18_15h53.52.794,alternatingbabyloc,2023.2.2,86.68938500864849,
,,,,,,,,466.74708377500065,13,faces-22.jpg,bb98,5,vpnl,2024-02-18_15h53.52.794,alternatingbabyloc,2023.2.2,86.68938500864849,
,,,,,,,,467.2470117800003,13,faces-23.jpg,bb98,5,vpnl,2024-02-18_15h53.52.794,alternatingbabyloc,2023.2.2,86.68938500864849,
,,,,,,,,467.74765362299877,13,faces-24.jpg,bb98,5,vpnl,2024-02-18_15h53.52.794,alternatingbabyloc,2023.2.2,86.68938500864849,
,,,,,,,,468.24745631100086,14,blank-25.jpg,bb98,5,vpnl,2024-02-18_15h53.52.794,alternatingbabyloc,2023.2.2,86.68938500864849,
,,,,,,,,468.74740432600083,14,blank-26.jpg,bb98,5,vpnl,2024-02-18_15h53.52.794,alternatingbabyloc,2023.2.2,86.68938500864849,
,,,,,,,,469.24687782600085,14,blank-27.jpg,bb98,5,vpnl,2024-02-18_15h53.52.794,alternatingbabyloc,2023.2.2,86.68938500864849,
,,,,,,,,469.7470678799982,14,blank-28.jpg,bb98,5,vpnl,2024-02-18_15h53.52.794,alternatingbabyloc,2023.2.2,86.68938500864849,
,,,,,,,,470.2473589680012,14,blank-29.jpg,bb98,5,vpnl,2024-02-18_15h53.52.794,alternatingbabyloc,2023.2.2,86.68938500864849,
,,,,,,,,470.74630225500005,14,blank-30.jpg,bb98,5,vpnl,2024-02-18_15h53.52.794,alternatingbabyloc,2023.2.2,86.68938500864849,
,,,,,,,,471.24693210199985,14,blank-31.jpg,bb98,5,vpnl,2024-02-18_15h53.52.794,alternatingbabyloc,2023.2.2,86.68938500864849,
,,,,,,,,471.7470139049983,14,blank-32.jpg,bb98,5,vpnl,2024-02-18_15h53.52.794,alternatingbabyloc,2023.2.2,86.68938500864849,
,,,,,,,,472.2480941369977,15,hands-17.jpg,bb98,5,vpnl,2024-02-18_15h53.52.794,alternatingbabyloc,2023.2.2,86.68938500864849,
,,,,,,,,472.7464242569986,15,hands-18.jpg,bb98,5,vpnl,2024-02-18_15h53.52.794,alternatingbabyloc,2023.2.2,86.68938500864849,
,,,,,,,,473.24693134799963,15,hands-19.jpg,bb98,5,vpnl,2024-02-18_15h53.52.794,alternatingbabyloc,2023.2.2,86.68938500864849,
,,,,,,,,473.74711716599995,15,hands-20.jpg,bb98,5,vpnl,2024-02-18_15h53.52.794,alternatingbabyloc,2023.2.2,86.68938500864849,
,,,,,,,,474.246261545999,15,hands-21.jpg,bb98,5,vpnl,2024-02-18_15h53.52.794,alternatingbabyloc,2023.2.2,86.68938500864849,
,,,,,,,,474.74627732299996,15,hands-22.jpg,bb98,5,vpnl,2024-02-18_15h53.52.794,alternatingbabyloc,2023.2.2,86.68938500864849,
,,,,,,,,475.2468073560012,15,hands-23.jpg,bb98,5,vpnl,2024-02-18_15h53.52.794,alternatingbabyloc,2023.2.2,86.68938500864849,
,,,,,,,,475.7468599019994,15,hands-24.jpg,bb98,5,vpnl,2024-02-18_15h53.52.794,alternatingbabyloc,2023.2.2,86.68938500864849,
,,,,,,,,476.24704690900035,16,cars-17.jpg,bb98,5,vpnl,2024-02-18_15h53.52.794,alternatingbabyloc,2023.2.2,86.68938500864849,
,,,,,,,,476.74485940199884,16,cars-18.jpg,bb98,5,vpnl,2024-02-18_15h53.52.794,alternatingbabyloc,2023.2.2,86.68938500864849,
,,,,,,,,477.24521602099776,16,cars-19.jpg,bb98,5,vpnl,2024-02-18_15h53.52.794,alternatingbabyloc,2023.2.2,86.68938500864849,
,,,,,,,,477.7443545589995,16,cars-20.jpg,bb98,5,vpnl,2024-02-18_15h53.52.794,alternatingbabyloc,2023.2.2,86.68938500864849,
,,,,,,,,478.2444522699989,16,cars-21.jpg,bb98,5,vpnl,2024-02-18_15h53.52.794,alternatingbabyloc,2023.2.2,86.68938500864849,
,,,,,,,,478.7448921219984,16,cars-22.jpg,bb98,5,vpnl,2024-02-18_15h53.52.794,alternatingbabyloc,2023.2.2,86.68938500864849,
,,,,,,,,479.2441268679977,16,cars-23.jpg,bb98,5,vpnl,2024-02-18_15h53.52.794,alternatingbabyloc,2023.2.2,86.68938500864849,
,,,,,,,,479.74407134099965,16,cars-24.jpg,bb98,5,vpnl,2024-02-18_15h53.52.794,alternatingbabyloc,2023.2.2,86.68938500864849,
,,,,,,,,480.2442352709986,17,blank-33.jpg,bb98,5,vpnl,2024-02-18_15h53.52.794,alternatingbabyloc,2023.2.2,86.68938500864849,
,,,,,,,,480.7442686619979,17,blank-34.jpg,bb98,5,vpnl,2024-02-18_15h53.52.794,alternatingbabyloc,2023.2.2,86.68938500864849,
,,,,,,,,481.244078093001,17,blank-35.jpg,bb98,5,vpnl,2024-02-18_15h53.52.794,alternatingbabyloc,2023.2.2,86.68938500864849,
,,,,,,,,481.7443215429994,17,blank-36.jpg,bb98,5,vpnl,2024-02-18_15h53.52.794,alternatingbabyloc,2023.2.2,86.68938500864849,
,,,,,,,,482.2444390870005,17,blank-37.jpg,bb98,5,vpnl,2024-02-18_15h53.52.794,alternatingbabyloc,2023.2.2,86.68938500864849,
,,,,,,,,482.7441608199988,17,blank-38.jpg,bb98,5,vpnl,2024-02-18_15h53.52.794,alternatingbabyloc,2023.2.2,86.68938500864849,
,,,,,,,,483.24451650099945,17,blank-39.jpg,bb98,5,vpnl,2024-02-18_15h53.52.794,alternatingbabyloc,2023.2.2,86.68938500864849,
,,,,,,,,483.74424907999855,17,blank-40.jpg,bb98,5,vpnl,2024-02-18_15h53.52.794,alternatingbabyloc,2023.2.2,86.68938500864849,
,,,,,,,,484.2442446210007,18,faces-25.jpg,bb98,5,vpnl,2024-02-18_15h53.52.794,alternatingbabyloc,2023.2.2,86.68938500864849,
,,,,,,,,484.74397400700036,18,faces-26.jpg,bb98,5,vpnl,2024-02-18_15h53.52.794,alternatingbabyloc,2023.2.2,86.68938500864849,
,,,,,,,,485.2438621359979,18,faces-27.jpg,bb98,5,vpnl,2024-02-18_15h53.52.794,alternatingbabyloc,2023.2.2,86.68938500864849,
,,,,,,,,485.74502891799784,18,faces-28.jpg,bb98,5,vpnl,2024-02-18_15h53.52.794,alternatingbabyloc,2023.2.2,86.68938500864849,
,,,,,,,,486.24416553599804,18,faces-29.jpg,bb98,5,vpnl,2024-02-18_15h53.52.794,alternatingbabyloc,2023.2.2,86.68938500864849,
,,,,,,,,486.7449839619985,18,faces-30.jpg,bb98,5,vpnl,2024-02-18_15h53.52.794,alternatingbabyloc,2023.2.2,86.68938500864849,
,,,,,,,,487.2451189200001,18,faces-31.jpg,bb98,5,vpnl,2024-02-18_15h53.52.794,alternatingbabyloc,2023.2.2,86.68938500864849,
,,,,,,,,487.74440551500084,18,faces-32.jpg,bb98,5,vpnl,2024-02-18_15h53.52.794,alternatingbabyloc,2023.2.2,86.68938500864849,
,,,,,,,,488.2441521920009,19,hands-25.jpg,bb98,5,vpnl,2024-02-18_15h53.52.794,alternatingbabyloc,2023.2.2,86.68938500864849,
,,,,,,,,488.74484836899865,19,hands-26.jpg,bb98,5,vpnl,2024-02-18_15h53.52.794,alternatingbabyloc,2023.2.2,86.68938500864849,
,,,,,,,,489.24455964799927,19,hands-27.jpg,bb98,5,vpnl,2024-02-18_15h53.52.794,alternatingbabyloc,2023.2.2,86.68938500864849,
,,,,,,,,489.7446612669992,19,hands-28.jpg,bb98,5,vpnl,2024-02-18_15h53.52.794,alternatingbabyloc,2023.2.2,86.68938500864849,
,,,,,,,,490.2440804959988,19,hands-29.jpg,bb98,5,vpnl,2024-02-18_15h53.52.794,alternatingbabyloc,2023.2.2,86.68938500864849,
,,,,,,,,490.7447156849994,19,hands-30.jpg,bb98,5,vpnl,2024-02-18_15h53.52.794,alternatingbabyloc,2023.2.2,86.68938500864849,
,,,,,,,,491.2449199549992,19,hands-31.jpg,bb98,5,vpnl,2024-02-18_15h53.52.794,alternatingbabyloc,2023.2.2,86.68938500864849,
,,,,,,,,491.7434301930007,19,hands-32.jpg,bb98,5,vpnl,2024-02-18_15h53.52.794,alternatingbabyloc,2023.2.2,86.68938500864849,
,,,,,,,,492.2441592719988,20,cars-25.jpg,bb98,5,vpnl,2024-02-18_15h53.52.794,alternatingbabyloc,2023.2.2,86.68938500864849,
,,,,,,,,492.746662278998,20,cars-26.jpg,bb98,5,vpnl,2024-02-18_15h53.52.794,alternatingbabyloc,2023.2.2,86.68938500864849,
,,,,,,,,493.24670093700115,20,cars-27.jpg,bb98,5,vpnl,2024-02-18_15h53.52.794,alternatingbabyloc,2023.2.2,86.68938500864849,
,,,,,,,,493.74915366999994,20,cars-28.jpg,bb98,5,vpnl,2024-02-18_15h53.52.794,alternatingbabyloc,2023.2.2,86.68938500864849,
,,,,,,,,494.2487507859987,20,cars-29.jpg,bb98,5,vpnl,2024-02-18_15h53.52.794,alternatingbabyloc,2023.2.2,86.68938500864849,
,,,,,,,,494.74660902399773,20,cars-30.jpg,bb98,5,vpnl,2024-02-18_15h53.52.794,alternatingbabyloc,2023.2.2,86.68938500864849,
,,,,,,,,495.24668712399944,20,cars-31.jpg,bb98,5,vpnl,2024-02-18_15h53.52.794,alternatingbabyloc,2023.2.2,86.68938500864849,
,,,,,,,,495.733569308999,20,cars-32.jpg,bb98,5,vpnl,2024-02-18_15h53.52.794,alternatingbabyloc,2023.2.2,86.68938500864849,
,,,,,,,,496.2486787179987,21,scenes-25.jpg,bb98,5,vpnl,2024-02-18_15h53.52.794,alternatingbabyloc,2023.2.2,86.68938500864849,
,,,,,,,,496.74965830200017,21,scenes-26.jpg,bb98,5,vpnl,2024-02-18_15h53.52.794,alternatingbabyloc,2023.2.2,86.68938500864849,
,,,,,,,,497.2548340370013,21,scenes-27.jpg,bb98,5,vpnl,2024-02-18_15h53.52.794,alternatingbabyloc,2023.2.2,86.68938500864849,
,,,,,,,,497.7467205339999,21,scenes-28.jpg,bb98,5,vpnl,2024-02-18_15h53.52.794,alternatingbabyloc,2023.2.2,86.68938500864849,
,,,,,,,,498.245813163001,21,scenes-29.jpg,bb98,5,vpnl,2024-02-18_15h53.52.794,alternatingbabyloc,2023.2.2,86.68938500864849,
,,,,,,,,498.74891292900065,21,scenes-30.jpg,bb98,5,vpnl,2024-02-18_15h53.52.794,alternatingbabyloc,2023.2.2,86.68938500864849,
,,,,,,,,499.2473561859988,21,scenes-31.jpg,bb98,5,vpnl,2024-02-18_15h53.52.794,alternatingbabyloc,2023.2.2,86.68938500864849,
,,,,,,,,499.74643173200093,21,scenes-32.jpg,bb98,5,vpnl,2024-02-18_15h53.52.794,alternatingbabyloc,2023.2.2,86.68938500864849,
,,,,,,,,500.2458197320011,22,cars-33.jpg,bb98,5,vpnl,2024-02-18_15h53.52.794,alternatingbabyloc,2023.2.2,86.68938500864849,
,,,,,,,,500.745865891,22,cars-34.jpg,bb98,5,vpnl,2024-02-18_15h53.52.794,alternatingbabyloc,2023.2.2,86.68938500864849,
,,,,,,,,501.24627329099894,22,cars-35.jpg,bb98,5,vpnl,2024-02-18_15h53.52.794,alternatingbabyloc,2023.2.2,86.68938500864849,
,,,,,,,,501.74726869200094,22,cars-36.jpg,bb98,5,vpnl,2024-02-18_15h53.52.794,alternatingbabyloc,2023.2.2,86.68938500864849,
,,,,,,,,502.2457915470004,22,cars-37.jpg,bb98,5,vpnl,2024-02-18_15h53.52.794,alternatingbabyloc,2023.2.2,86.68938500864849,
,,,,,,,,502.73575846099993,22,cars-38.jpg,bb98,5,vpnl,2024-02-18_15h53.52.794,alternatingbabyloc,2023.2.2,86.68938500864849,
,,,,,,,,503.2446390080004,22,cars-39.jpg,bb98,5,vpnl,2024-02-18_15h53.52.794,alternatingbabyloc,2023.2.2,86.68938500864849,
,,,,,,,,503.7450050919979,22,cars-40.jpg,bb98,5,vpnl,2024-02-18_15h53.52.794,alternatingbabyloc,2023.2.2,86.68938500864849,
,,,,,,,,504.2440013359992,23,blank-41.jpg,bb98,5,vpnl,2024-02-18_15h53.52.794,alternatingbabyloc,2023.2.2,86.68938500864849,
,,,,,,,,504.7445118930009,23,blank-42.jpg,bb98,5,vpnl,2024-02-18_15h53.52.794,alternatingbabyloc,2023.2.2,86.68938500864849,
,,,,,,,,505.24454803700064,23,blank-43.jpg,bb98,5,vpnl,2024-02-18_15h53.52.794,alternatingbabyloc,2023.2.2,86.68938500864849,
,,,,,,,,505.7445510889993,23,blank-44.jpg,bb98,5,vpnl,2024-02-18_15h53.52.794,alternatingbabyloc,2023.2.2,86.68938500864849,
,,,,,,,,506.2438531939988,23,blank-45.jpg,bb98,5,vpnl,2024-02-18_15h53.52.794,alternatingbabyloc,2023.2.2,86.68938500864849,
,,,,,,,,506.74444531799963,23,blank-46.jpg,bb98,5,vpnl,2024-02-18_15h53.52.794,alternatingbabyloc,2023.2.2,86.68938500864849,
,,,,,,,,507.2447263069989,23,blank-47.jpg,bb98,5,vpnl,2024-02-18_15h53.52.794,alternatingbabyloc,2023.2.2,86.68938500864849,
,,,,,,,,507.74379174500064,23,blank-48.jpg,bb98,5,vpnl,2024-02-18_15h53.52.794,alternatingbabyloc,2023.2.2,86.68938500864849,
,,,,,,,,508.2441011009978,24,faces-33.jpg,bb98,5,vpnl,2024-02-18_15h53.52.794,alternatingbabyloc,2023.2.2,86.68938500864849,
,,,,,,,,508.7456000759994,24,faces-34.jpg,bb98,5,vpnl,2024-02-18_15h53.52.794,alternatingbabyloc,2023.2.2,86.68938500864849,
,,,,,,,,509.2441587180001,24,faces-35.jpg,bb98,5,vpnl,2024-02-18_15h53.52.794,alternatingbabyloc,2023.2.2,86.68938500864849,
,,,,,,,,509.7444997530001,24,faces-36.jpg,bb98,5,vpnl,2024-02-18_15h53.52.794,alternatingbabyloc,2023.2.2,86.68938500864849,
,,,,,,,,510.24488871799986,24,faces-37.jpg,bb98,5,vpnl,2024-02-18_15h53.52.794,alternatingbabyloc,2023.2.2,86.68938500864849,
,,,,,,,,510.7441808809999,24,faces-38.jpg,bb98,5,vpnl,2024-02-18_15h53.52.794,alternatingbabyloc,2023.2.2,86.68938500864849,
,,,,,,,,511.2436651959979,24,faces-39.jpg,bb98,5,vpnl,2024-02-18_15h53.52.794,alternatingbabyloc,2023.2.2,86.68938500864849,
,,,,,,,,511.744078918,24,faces-40.jpg,bb98,5,vpnl,2024-02-18_15h53.52.794,alternatingbabyloc,2023.2.2,86.68938500864849,
,,,,,,,,512.2437848549998,25,hands-33.jpg,bb98,5,vpnl,2024-02-18_15h53.52.794,alternatingbabyloc,2023.2.2,86.68938500864849,
,,,,,,,,512.7443769969977,25,hands-34.jpg,bb98,5,vpnl,2024-02-18_15h53.52.794,alternatingbabyloc,2023.2.2,86.68938500864849,
,,,,,,,,513.2435182119989,25,hands-35.jpg,bb98,5,vpnl,2024-02-18_15h53.52.794,alternatingbabyloc,2023.2.2,86.68938500864849,
,,,,,,,,513.7433680649992,25,hands-36.jpg,bb98,5,vpnl,2024-02-18_15h53.52.794,alternatingbabyloc,2023.2.2,86.68938500864849,
,,,,,,,,514.243546761998,25,hands-37.jpg,bb98,5,vpnl,2024-02-18_15h53.52.794,alternatingbabyloc,2023.2.2,86.68938500864849,
,,,,,,,,514.7433854919982,25,hands-38.jpg,bb98,5,vpnl,2024-02-18_15h53.52.794,alternatingbabyloc,2023.2.2,86.68938500864849,
,,,,,,,,515.2444322759984,25,hands-39.jpg,bb98,5,vpnl,2024-02-18_15h53.52.794,alternatingbabyloc,2023.2.2,86.68938500864849,
,,,,,,,,515.7430995719988,25,hands-40.jpg,bb98,5,vpnl,2024-02-18_15h53.52.794,alternatingbabyloc,2023.2.2,86.68938500864849,
,,,,,,,,516.2437022449994,26,scenes-33.jpg,bb98,5,vpnl,2024-02-18_15h53.52.794,alternatingbabyloc,2023.2.2,86.68938500864849,
,,,,,,,,516.743451770999,26,scenes-34.jpg,bb98,5,vpnl,2024-02-18_15h53.52.794,alternatingbabyloc,2023.2.2,86.68938500864849,
,,,,,,,,517.2434212389999,26,scenes-35.jpg,bb98,5,vpnl,2024-02-18_15h53.52.794,alternatingbabyloc,2023.2.2,86.68938500864849,
,,,,,,,,517.7443790539983,26,scenes-36.jpg,bb98,5,vpnl,2024-02-18_15h53.52.794,alternatingbabyloc,2023.2.2,86.68938500864849,
,,,,,,,,518.2434789359977,26,scenes-37.jpg,bb98,5,vpnl,2024-02-18_15h53.52.794,alternatingbabyloc,2023.2.2,86.68938500864849,
,,,,,,,,518.743900589001,26,scenes-38.jpg,bb98,5,vpnl,2024-02-18_15h53.52.794,alternatingbabyloc,2023.2.2,86.68938500864849,
,,,,,,,,519.2439709869977,26,scenes-39.jpg,bb98,5,vpnl,2024-02-18_15h53.52.794,alternatingbabyloc,2023.2.2,86.68938500864849,
,,,,,,,,519.7439275299985,26,scenes-40.jpg,bb98,5,vpnl,2024-02-18_15h53.52.794,alternatingbabyloc,2023.2.2,86.68938500864849,
,,,,,,,,520.243405145,27,cars-41.jpg,bb98,5,vpnl,2024-02-18_15h53.52.794,alternatingbabyloc,2023.2.2,86.68938500864849,
,,,,,,,,520.7442377730003,27,cars-42.jpg,bb98,5,vpnl,2024-02-18_15h53.52.794,alternatingbabyloc,2023.2.2,86.68938500864849,
,,,,,,,,521.2441754620013,27,cars-43.jpg,bb98,5,vpnl,2024-02-18_15h53.52.794,alternatingbabyloc,2023.2.2,86.68938500864849,
,,,,,,,,521.744351598998,27,cars-44.jpg,bb98,5,vpnl,2024-02-18_15h53.52.794,alternatingbabyloc,2023.2.2,86.68938500864849,
,,,,,,,,522.2434732799993,27,cars-45.jpg,bb98,5,vpnl,2024-02-18_15h53.52.794,alternatingbabyloc,2023.2.2,86.68938500864849,
,,,,,,,,522.7434572390011,27,cars-46.jpg,bb98,5,vpnl,2024-02-18_15h53.52.794,alternatingbabyloc,2023.2.2,86.68938500864849,
,,,,,,,,523.2441806450006,27,cars-47.jpg,bb98,5,vpnl,2024-02-18_15h53.52.794,alternatingbabyloc,2023.2.2,86.68938500864849,
,,,,,,,,523.7441696940004,27,cars-48.jpg,bb98,5,vpnl,2024-02-18_15h53.52.794,alternatingbabyloc,2023.2.2,86.68938500864849,
,,,,,,,,524.2435166340001,28,scenes-41.jpg,bb98,5,vpnl,2024-02-18_15h53.52.794,alternatingbabyloc,2023.2.2,86.68938500864849,
,,,,,,,,524.7441964610007,28,scenes-42.jpg,bb98,5,vpnl,2024-02-18_15h53.52.794,alternatingbabyloc,2023.2.2,86.68938500864849,
,,,,,,,,525.2441036429991,28,scenes-43.jpg,bb98,5,vpnl,2024-02-18_15h53.52.794,alternatingbabyloc,2023.2.2,86.68938500864849,
,,,,,,,,525.7433571239999,28,scenes-44.jpg,bb98,5,vpnl,2024-02-18_15h53.52.794,alternatingbabyloc,2023.2.2,86.68938500864849,
,,,,,,,,526.2433662069998,28,scenes-45.jpg,bb98,5,vpnl,2024-02-18_15h53.52.794,alternatingbabyloc,2023.2.2,86.68938500864849,
,,,,,,,,526.7441068619992,28,scenes-46.jpg,bb98,5,vpnl,2024-02-18_15h53.52.794,alternatingbabyloc,2023.2.2,86.68938500864849,
,,,,,,,,527.2441144420009,28,scenes-47.jpg,bb98,5,vpnl,2024-02-18_15h53.52.794,alternatingbabyloc,2023.2.2,86.68938500864849,
,,,,,,,,527.7429848520005,28,scenes-48.jpg,bb98,5,vpnl,2024-02-18_15h53.52.794,alternatingbabyloc,2023.2.2,86.68938500864849,
,,,,,,,,528.2433426139978,29,faces-41.jpg,bb98,5,vpnl,2024-02-18_15h53.52.794,alternatingbabyloc,2023.2.2,86.68938500864849,
,,,,,,,,528.743237996001,29,faces-42.jpg,bb98,5,vpnl,2024-02-18_15h53.52.794,alternatingbabyloc,2023.2.2,86.68938500864849,
,,,,,,,,529.2431419309978,29,faces-43.jpg,bb98,5,vpnl,2024-02-18_15h53.52.794,alternatingbabyloc,2023.2.2,86.68938500864849,
,,,,,,,,529.7431856420008,29,faces-44.jpg,bb98,5,vpnl,2024-02-18_15h53.52.794,alternatingbabyloc,2023.2.2,86.68938500864849,
,,,,,,,,530.2433595789989,29,faces-45.jpg,bb98,5,vpnl,2024-02-18_15h53.52.794,alternatingbabyloc,2023.2.2,86.68938500864849,
,,,,,,,,530.7432047719994,29,faces-46.jpg,bb98,5,vpnl,2024-02-18_15h53.52.794,alternatingbabyloc,2023.2.2,86.68938500864849,
,,,,,,,,531.243978827999,29,faces-47.jpg,bb98,5,vpnl,2024-02-18_15h53.52.794,alternatingbabyloc,2023.2.2,86.68938500864849,
,,,,,,,,531.7436782080003,29,faces-48.jpg,bb98,5,vpnl,2024-02-18_15h53.52.794,alternatingbabyloc,2023.2.2,86.68938500864849,
,,,,,,,,532.2434981109982,30,hands-41.jpg,bb98,5,vpnl,2024-02-18_15h53.52.794,alternatingbabyloc,2023.2.2,86.68938500864849,
,,,,,,,,532.749105521998,30,hands-42.jpg,bb98,5,vpnl,2024-02-18_15h53.52.794,alternatingbabyloc,2023.2.2,86.68938500864849,
,,,,,,,,533.2517635149998,30,hands-43.jpg,bb98,5,vpnl,2024-02-18_15h53.52.794,alternatingbabyloc,2023.2.2,86.68938500864849,
,,,,,,,,533.7319531350004,30,hands-44.jpg,bb98,5,vpnl,2024-02-18_15h53.52.794,alternatingbabyloc,2023.2.2,86.68938500864849,
,,,,,,,,534.2331605830004,30,hands-45.jpg,bb98,5,vpnl,2024-02-18_15h53.52.794,alternatingbabyloc,2023.2.2,86.68938500864849,
,,,,,,,,534.7467836719989,30,hands-46.jpg,bb98,5,vpnl,2024-02-18_15h53.52.794,alternatingbabyloc,2023.2.2,86.68938500864849,
,,,,,,,,535.2506284599986,30,hands-47.jpg,bb98,5,vpnl,2024-02-18_15h53.52.794,alternatingbabyloc,2023.2.2,86.68938500864849,
,,,,,,,,535.7460911390008,30,hands-48.jpg,bb98,5,vpnl,2024-02-18_15h53.52.794,alternatingbabyloc,2023.2.2,86.68938500864849,
,,,,,,,,536.2453851930004,31,blank-49.jpg,bb98,5,vpnl,2024-02-18_15h53.52.794,alternatingbabyloc,2023.2.2,86.68938500864849,
,,,,,,,,536.7461298130002,31,blank-50.jpg,bb98,5,vpnl,2024-02-18_15h53.52.794,alternatingbabyloc,2023.2.2,86.68938500864849,
,,,,,,,,537.2449982879989,31,blank-51.jpg,bb98,5,vpnl,2024-02-18_15h53.52.794,alternatingbabyloc,2023.2.2,86.68938500864849,
,,,,,,,,537.7466004630005,31,blank-52.jpg,bb98,5,vpnl,2024-02-18_15h53.52.794,alternatingbabyloc,2023.2.2,86.68938500864849,
,,,,,,,,538.2463161739979,31,blank-53.jpg,bb98,5,vpnl,2024-02-18_15h53.52.794,alternatingbabyloc,2023.2.2,86.68938500864849,
,,,,,,,,538.7471020599987,31,blank-54.jpg,bb98,5,vpnl,2024-02-18_15h53.52.794,alternatingbabyloc,2023.2.2,86.68938500864849,
,,,,,,,,539.2460547919982,31,blank-55.jpg,bb98,5,vpnl,2024-02-18_15h53.52.794,alternatingbabyloc,2023.2.2,86.68938500864849,
,,,,,,,,539.7460102500008,31,blank-56.jpg,bb98,5,vpnl,2024-02-18_15h53.52.794,alternatingbabyloc,2023.2.2,86.68938500864849,
,,,,,,,,540.2456106669997,32,cars-49.jpg,bb98,5,vpnl,2024-02-18_15h53.52.794,alternatingbabyloc,2023.2.2,86.68938500864849,
,,,,,,,,540.7310139670008,32,cars-50.jpg,bb98,5,vpnl,2024-02-18_15h53.52.794,alternatingbabyloc,2023.2.2,86.68938500864849,
,,,,,,,,541.2463876750007,32,cars-51.jpg,bb98,5,vpnl,2024-02-18_15h53.52.794,alternatingbabyloc,2023.2.2,86.68938500864849,
,,,,,,,,541.7456402309981,32,cars-52.jpg,bb98,5,vpnl,2024-02-18_15h53.52.794,alternatingbabyloc,2023.2.2,86.68938500864849,
,,,,,,,,542.2448757880011,32,cars-53.jpg,bb98,5,vpnl,2024-02-18_15h53.52.794,alternatingbabyloc,2023.2.2,86.68938500864849,
,,,,,,,,542.7458058699995,32,cars-54.jpg,bb98,5,vpnl,2024-02-18_15h53.52.794,alternatingbabyloc,2023.2.2,86.68938500864849,
,,,,,,,,543.245801522,32,cars-55.jpg,bb98,5,vpnl,2024-02-18_15h53.52.794,alternatingbabyloc,2023.2.2,86.68938500864849,
,,,,,,,,543.746040086,32,cars-56.jpg,bb98,5,vpnl,2024-02-18_15h53.52.794,alternatingbabyloc,2023.2.2,86.68938500864849,
,,,,,,,,544.2449372029987,33,scenes-49.jpg,bb98,5,vpnl,2024-02-18_15h53.52.794,alternatingbabyloc,2023.2.2,86.68938500864849,
,,,,,,,,544.7456541869979,33,scenes-50.jpg,bb98,5,vpnl,2024-02-18_15h53.52.794,alternatingbabyloc,2023.2.2,86.68938500864849,
,,,,,,,,545.2547917439988,33,scenes-51.jpg,bb98,5,vpnl,2024-02-18_15h53.52.794,alternatingbabyloc,2023.2.2,86.68938500864849,
,,,,,,,,545.7454872070011,33,scenes-52.jpg,bb98,5,vpnl,2024-02-18_15h53.52.794,alternatingbabyloc,2023.2.2,86.68938500864849,
,,,,,,,,546.2482000970012,33,scenes-53.jpg,bb98,5,vpnl,2024-02-18_15h53.52.794,alternatingbabyloc,2023.2.2,86.68938500864849,
,,,,,,,,546.7458696229987,33,scenes-54.jpg,bb98,5,vpnl,2024-02-18_15h53.52.794,alternatingbabyloc,2023.2.2,86.68938500864849,
,,,,,,,,547.2461572419998,33,scenes-55.jpg,bb98,5,vpnl,2024-02-18_15h53.52.794,alternatingbabyloc,2023.2.2,86.68938500864849,
,,,,,,,,547.7458538770006,33,scenes-56.jpg,bb98,5,vpnl,2024-02-18_15h53.52.794,alternatingbabyloc,2023.2.2,86.68938500864849,
,,,,,,,,548.2450686169977,34,hands-49.jpg,bb98,5,vpnl,2024-02-18_15h53.52.794,alternatingbabyloc,2023.2.2,86.68938500864849,
,,,,,,,,548.7456785289978,34,hands-50.jpg,bb98,5,vpnl,2024-02-18_15h53.52.794,alternatingbabyloc,2023.2.2,86.68938500864849,
,,,,,,,,549.2459127059992,34,hands-51.jpg,bb98,5,vpnl,2024-02-18_15h53.52.794,alternatingbabyloc,2023.2.2,86.68938500864849,
,,,,,,,,549.7457137819983,34,hands-52.jpg,bb98,5,vpnl,2024-02-18_15h53.52.794,alternatingbabyloc,2023.2.2,86.68938500864849,
,,,,,,,,550.247136318998,34,hands-53.jpg,bb98,5,vpnl,2024-02-18_15h53.52.794,alternatingbabyloc,2023.2.2,86.68938500864849,
,,,,,,,,550.7454869280009,34,hands-54.jpg,bb98,5,vpnl,2024-02-18_15h53.52.794,alternatingbabyloc,2023.2.2,86.68938500864849,
,,,,,,,,551.2454943099983,34,hands-55.jpg,bb98,5,vpnl,2024-02-18_15h53.52.794,alternatingbabyloc,2023.2.2,86.68938500864849,
,,,,,,,,551.745498166998,34,hands-56.jpg,bb98,5,vpnl,2024-02-18_15h53.52.794,alternatingbabyloc,2023.2.2,86.68938500864849,
,,,,,,,,552.2504266059987,35,faces-49.jpg,bb98,5,vpnl,2024-02-18_15h53.52.794,alternatingbabyloc,2023.2.2,86.68938500864849,
,,,,,,,,552.7427049360012,35,faces-50.jpg,bb98,5,vpnl,2024-02-18_15h53.52.794,alternatingbabyloc,2023.2.2,86.68938500864849,
,,,,,,,,553.2431654079992,35,faces-51.jpg,bb98,5,vpnl,2024-02-18_15h53.52.794,alternatingbabyloc,2023.2.2,86.68938500864849,
,,,,,,,,553.7433970950005,35,faces-52.jpg,bb98,5,vpnl,2024-02-18_15h53.52.794,alternatingbabyloc,2023.2.2,86.68938500864849,
,,,,,,,,554.2428639379978,35,faces-53.jpg,bb98,5,vpnl,2024-02-18_15h53.52.794,alternatingbabyloc,2023.2.2,86.68938500864849,
,,,,,,,,554.7424796679989,35,faces-54.jpg,bb98,5,vpnl,2024-02-18_15h53.52.794,alternatingbabyloc,2023.2.2,86.68938500864849,
,,,,,,,,555.2439410459992,35,faces-55.jpg,bb98,5,vpnl,2024-02-18_15h53.52.794,alternatingbabyloc,2023.2.2,86.68938500864849,
,,,,,,,,555.7427195689997,35,faces-56.jpg,bb98,5,vpnl,2024-02-18_15h53.52.794,alternatingbabyloc,2023.2.2,86.68938500864849,
,,,,,,,,556.2437967039987,36,blank-57.jpg,bb98,5,vpnl,2024-02-18_15h53.52.794,alternatingbabyloc,2023.2.2,86.68938500864849,
,,,,,,,,556.7424235500002,36,blank-58.jpg,bb98,5,vpnl,2024-02-18_15h53.52.794,alternatingbabyloc,2023.2.2,86.68938500864849,
,,,,,,,,557.232347055,36,blank-59.jpg,bb98,5,vpnl,2024-02-18_15h53.52.794,alternatingbabyloc,2023.2.2,86.68938500864849,
,,,,,,,,557.7456187200005,36,blank-60.jpg,bb98,5,vpnl,2024-02-18_15h53.52.794,alternatingbabyloc,2023.2.2,86.68938500864849,
,,,,,,,,558.2493898360008,36,blank-61.jpg,bb98,5,vpnl,2024-02-18_15h53.52.794,alternatingbabyloc,2023.2.2,86.68938500864849,
,,,,,,,,558.7454632709996,36,blank-62.jpg,bb98,5,vpnl,2024-02-18_15h53.52.794,alternatingbabyloc,2023.2.2,86.68938500864849,
,,,,,,,,559.2455085719994,36,blank-63.jpg,bb98,5,vpnl,2024-02-18_15h53.52.794,alternatingbabyloc,2023.2.2,86.68938500864849,
,,,,,,,,559.745674845999,36,blank-64.jpg,bb98,5,vpnl,2024-02-18_15h53.52.794,alternatingbabyloc,2023.2.2,86.68938500864849,
,,,,,,,,560.2473080880009,37,cars-57.jpg,bb98,5,vpnl,2024-02-18_15h53.52.794,alternatingbabyloc,2023.2.2,86.68938500864849,
,,,,,,,,560.7471776439997,37,cars-58.jpg,bb98,5,vpnl,2024-02-18_15h53.52.794,alternatingbabyloc,2023.2.2,86.68938500864849,
,,,,,,,,561.2464272729994,37,cars-59.jpg,bb98,5,vpnl,2024-02-18_15h53.52.794,alternatingbabyloc,2023.2.2,86.68938500864849,
,,,,,,,,561.7454657029994,37,cars-60.jpg,bb98,5,vpnl,2024-02-18_15h53.52.794,alternatingbabyloc,2023.2.2,86.68938500864849,
,,,,,,,,562.2470462870006,37,cars-61.jpg,bb98,5,vpnl,2024-02-18_15h53.52.794,alternatingbabyloc,2023.2.2,86.68938500864849,
,,,,,,,,562.7425888779981,37,cars-62.jpg,bb98,5,vpnl,2024-02-18_15h53.52.794,alternatingbabyloc,2023.2.2,86.68938500864849,
,,,,,,,,563.2424539530002,37,cars-63.jpg,bb98,5,vpnl,2024-02-18_15h53.52.794,alternatingbabyloc,2023.2.2,86.68938500864849,
,,,,,,,,563.7424424860001,37,cars-64.jpg,bb98,5,vpnl,2024-02-18_15h53.52.794,alternatingbabyloc,2023.2.2,86.68938500864849,
,,,,,,,,564.2527933009987,38,hands-57.jpg,bb98,5,vpnl,2024-02-18_15h53.52.794,alternatingbabyloc,2023.2.2,86.68938500864849,
,,,,,,,,564.7453194469999,38,hands-58.jpg,bb98,5,vpnl,2024-02-18_15h53.52.794,alternatingbabyloc,2023.2.2,86.68938500864849,
,,,,,,,,565.245360732999,38,hands-59.jpg,bb98,5,vpnl,2024-02-18_15h53.52.794,alternatingbabyloc,2023.2.2,86.68938500864849,
,,,,,,,,565.7323823420011,38,hands-60.jpg,bb98,5,vpnl,2024-02-18_15h53.52.794,alternatingbabyloc,2023.2.2,86.68938500864849,
,,,,,,,,566.245561568001,38,hands-61.jpg,bb98,5,vpnl,2024-02-18_15h53.52.794,alternatingbabyloc,2023.2.2,86.68938500864849,
,,,,,,,,566.741984843,38,hands-62.jpg,bb98,5,vpnl,2024-02-18_15h53.52.794,alternatingbabyloc,2023.2.2,86.68938500864849,
,,,,,,,,567.242841149,38,hands-63.jpg,bb98,5,vpnl,2024-02-18_15h53.52.794,alternatingbabyloc,2023.2.2,86.68938500864849,
,,,,,,,,567.7424184189986,38,hands-64.jpg,bb98,5,vpnl,2024-02-18_15h53.52.794,alternatingbabyloc,2023.2.2,86.68938500864849,
,,,,,,,,568.2423390639997,39,blank-65.jpg,bb98,5,vpnl,2024-02-18_15h53.52.794,alternatingbabyloc,2023.2.2,86.68938500864849,
,,,,,,,,568.7423216259995,39,blank-66.jpg,bb98,5,vpnl,2024-02-18_15h53.52.794,alternatingbabyloc,2023.2.2,86.68938500864849,
,,,,,,,,569.2487324770009,39,blank-67.jpg,bb98,5,vpnl,2024-02-18_15h53.52.794,alternatingbabyloc,2023.2.2,86.68938500864849,
,,,,,,,,569.745618091998,39,blank-68.jpg,bb98,5,vpnl,2024-02-18_15h53.52.794,alternatingbabyloc,2023.2.2,86.68938500864849,
,,,,,,,,570.2475912720001,39,blank-69.jpg,bb98,5,vpnl,2024-02-18_15h53.52.794,alternatingbabyloc,2023.2.2,86.68938500864849,
,,,,,,,,570.7472820260009,39,blank-70.jpg,bb98,5,vpnl,2024-02-18_15h53.52.794,alternatingbabyloc,2023.2.2,86.68938500864849,
,,,,,,,,571.2462033470001,39,blank-71.jpg,bb98,5,vpnl,2024-02-18_15h53.52.794,alternatingbabyloc,2023.2.2,86.68938500864849,
,,,,,,,,571.7553988010004,39,blank-72.jpg,bb98,5,vpnl,2024-02-18_15h53.52.794,alternatingbabyloc,2023.2.2,86.68938500864849,
,,,,,,,,572.234530062,40,faces-57.jpg,bb98,5,vpnl,2024-02-18_15h53.52.794,alternatingbabyloc,2023.2.2,86.68938500864849,
,,,,,,,,572.7471674609988,40,faces-58.jpg,bb98,5,vpnl,2024-02-18_15h53.52.794,alternatingbabyloc,2023.2.2,86.68938500864849,
,,,,,,,,573.2490857609992,40,faces-59.jpg,bb98,5,vpnl,2024-02-18_15h53.52.794,alternatingbabyloc,2023.2.2,86.68938500864849,
,,,,,,,,573.7511113680011,40,faces-60.jpg,bb98,5,vpnl,2024-02-18_15h53.52.794,alternatingbabyloc,2023.2.2,86.68938500864849,
,,,,,,,,574.2533602430012,40,faces-61.jpg,bb98,5,vpnl,2024-02-18_15h53.52.794,alternatingbabyloc,2023.2.2,86.68938500864849,
,,,,,,,,574.7462452340005,40,faces-62.jpg,bb98,5,vpnl,2024-02-18_15h53.52.794,alternatingbabyloc,2023.2.2,86.68938500864849,
,,,,,,,,575.2501203829997,40,faces-63.jpg,bb98,5,vpnl,2024-02-18_15h53.52.794,alternatingbabyloc,2023.2.2,86.68938500864849,
,,,,,,,,575.7497854920002,40,faces-64.jpg,bb98,5,vpnl,2024-02-18_15h53.52.794,alternatingbabyloc,2023.2.2,86.68938500864849,
,,,,,,,,576.252710585999,41,scenes-57.jpg,bb98,5,vpnl,2024-02-18_15h53.52.794,alternatingbabyloc,2023.2.2,86.68938500864849,
,,,,,,,,576.7453892759986,41,scenes-58.jpg,bb98,5,vpnl,2024-02-18_15h53.52.794,alternatingbabyloc,2023.2.2,86.68938500864849,
,,,,,,,,577.245021390001,41,scenes-59.jpg,bb98,5,vpnl,2024-02-18_15h53.52.794,alternatingbabyloc,2023.2.2,86.68938500864849,
,,,,,,,,577.745266580001,41,scenes-60.jpg,bb98,5,vpnl,2024-02-18_15h53.52.794,alternatingbabyloc,2023.2.2,86.68938500864849,
,,,,,,,,578.2454761179979,41,scenes-61.jpg,bb98,5,vpnl,2024-02-18_15h53.52.794,alternatingbabyloc,2023.2.2,86.68938500864849,
,,,,,,,,578.7450423890004,41,scenes-62.jpg,bb98,5,vpnl,2024-02-18_15h53.52.794,alternatingbabyloc,2023.2.2,86.68938500864849,
,,,,,,,,579.2450625169986,41,scenes-63.jpg,bb98,5,vpnl,2024-02-18_15h53.52.794,alternatingbabyloc,2023.2.2,86.68938500864849,
,,,,,,,,579.7454045570012,41,scenes-64.jpg,bb98,5,vpnl,2024-02-18_15h53.52.794,alternatingbabyloc,2023.2.2,86.68938500864849,
,,,,,,,,580.2452660909985,42,blank-73.jpg,bb98,5,vpnl,2024-02-18_15h53.52.794,alternatingbabyloc,2023.2.2,86.68938500864849,
,,,,,,,,580.7450970930004,42,blank-74.jpg,bb98,5,vpnl,2024-02-18_15h53.52.794,alternatingbabyloc,2023.2.2,86.68938500864849,
,,,,,,,,581.2453643299996,42,blank-75.jpg,bb98,5,vpnl,2024-02-18_15h53.52.794,alternatingbabyloc,2023.2.2,86.68938500864849,
,,,,,,,,581.7511969340012,42,blank-76.jpg,bb98,5,vpnl,2024-02-18_15h53.52.794,alternatingbabyloc,2023.2.2,86.68938500864849,
,,,,,,,,582.2451438589997,42,blank-77.jpg,bb98,5,vpnl,2024-02-18_15h53.52.794,alternatingbabyloc,2023.2.2,86.68938500864849,
,,,,,,,,582.7449551610007,42,blank-78.jpg,bb98,5,vpnl,2024-02-18_15h53.52.794,alternatingbabyloc,2023.2.2,86.68938500864849,
,,,,,,,,583.2450118499983,42,blank-79.jpg,bb98,5,vpnl,2024-02-18_15h53.52.794,alternatingbabyloc,2023.2.2,86.68938500864849,
,,,,,,,,583.7451785810008,42,blank-80.jpg,bb98,5,vpnl,2024-02-18_15h53.52.794,alternatingbabyloc,2023.2.2,86.68938500864849,
,,,,,,,,584.2452178739986,43,scenes-65.jpg,bb98,5,vpnl,2024-02-18_15h53.52.794,alternatingbabyloc,2023.2.2,86.68938500864849,
,,,,,,,,584.7449375889992,43,scenes-66.jpg,bb98,5,vpnl,2024-02-18_15h53.52.794,alternatingbabyloc,2023.2.2,86.68938500864849,
,,,,,,,,585.2449519699985,43,scenes-67.jpg,bb98,5,vpnl,2024-02-18_15h53.52.794,alternatingbabyloc,2023.2.2,86.68938500864849,
,,,,,,,,585.7450772640004,43,scenes-68.jpg,bb98,5,vpnl,2024-02-18_15h53.52.794,alternatingbabyloc,2023.2.2,86.68938500864849,
,,,,,,,,586.2456156740009,43,scenes-69.jpg,bb98,5,vpnl,2024-02-18_15h53.52.794,alternatingbabyloc,2023.2.2,86.68938500864849,
,,,,,,,,586.7420163819988,43,scenes-70.jpg,bb98,5,vpnl,2024-02-18_15h53.52.794,alternatingbabyloc,2023.2.2,86.68938500864849,
,,,,,,,,587.2420081319979,43,scenes-71.jpg,bb98,5,vpnl,2024-02-18_15h53.52.794,alternatingbabyloc,2023.2.2,86.68938500864849,
,,,,,,,,587.7421162639985,43,scenes-72.jpg,bb98,5,vpnl,2024-02-18_15h53.52.794,alternatingbabyloc,2023.2.2,86.68938500864849,
,,,,,,,,588.2426220489979,44,cars-65.jpg,bb98,5,vpnl,2024-02-18_15h53.52.794,alternatingbabyloc,2023.2.2,86.68938500864849,
,,,,,,,,588.7420955870002,44,cars-66.jpg,bb98,5,vpnl,2024-02-18_15h53.52.794,alternatingbabyloc,2023.2.2,86.68938500864849,
,,,,,,,,589.2419701209983,44,cars-67.jpg,bb98,5,vpnl,2024-02-18_15h53.52.794,alternatingbabyloc,2023.2.2,86.68938500864849,
,,,,,,,,589.7420032980008,44,cars-68.jpg,bb98,5,vpnl,2024-02-18_15h53.52.794,alternatingbabyloc,2023.2.2,86.68938500864849,
,,,,,,,,590.2420728709985,44,cars-69.jpg,bb98,5,vpnl,2024-02-18_15h53.52.794,alternatingbabyloc,2023.2.2,86.68938500864849,
,,,,,,,,590.7421008649981,44,cars-70.jpg,bb98,5,vpnl,2024-02-18_15h53.52.794,alternatingbabyloc,2023.2.2,86.68938500864849,
,,,,,,,,591.241774768001,44,cars-71.jpg,bb98,5,vpnl,2024-02-18_15h53.52.794,alternatingbabyloc,2023.2.2,86.68938500864849,
,,,,,,,,591.7418253510004,44,cars-72.jpg,bb98,5,vpnl,2024-02-18_15h53.52.794,alternatingbabyloc,2023.2.2,86.68938500864849,
,,,,,,,,592.2421093659977,45,faces-65.jpg,bb98,5,vpnl,2024-02-18_15h53.52.794,alternatingbabyloc,2023.2.2,86.68938500864849,
,,,,,,,,592.7439621810008,45,faces-66.jpg,bb98,5,vpnl,2024-02-18_15h53.52.794,alternatingbabyloc,2023.2.2,86.68938500864849,
,,,,,,,,593.2458429129983,45,faces-67.jpg,bb98,5,vpnl,2024-02-18_15h53.52.794,alternatingbabyloc,2023.2.2,86.68938500864849,
,,,,,,,,593.7447385570013,45,faces-68.jpg,bb98,5,vpnl,2024-02-18_15h53.52.794,alternatingbabyloc,2023.2.2,86.68938500864849,
,,,,,,,,594.2457563219978,45,faces-69.jpg,bb98,5,vpnl,2024-02-18_15h53.52.794,alternatingbabyloc,2023.2.2,86.68938500864849,
,,,,,,,,594.741853405998,45,faces-70.jpg,bb98,5,vpnl,2024-02-18_15h53.52.794,alternatingbabyloc,2023.2.2,86.68938500864849,
,,,,,,,,595.2418867140004,45,faces-71.jpg,bb98,5,vpnl,2024-02-18_15h53.52.794,alternatingbabyloc,2023.2.2,86.68938500864849,
,,,,,,,,595.7417893089987,45,faces-72.jpg,bb98,5,vpnl,2024-02-18_15h53.52.794,alternatingbabyloc,2023.2.2,86.68938500864849,
,,,,,,,,596.2420450829995,46,hands-65.jpg,bb98,5,vpnl,2024-02-18_15h53.52.794,alternatingbabyloc,2023.2.2,86.68938500864849,
,,,,,,,,596.7420276029989,46,hands-66.jpg,bb98,5,vpnl,2024-02-18_15h53.52.794,alternatingbabyloc,2023.2.2,86.68938500864849,
,,,,,,,,597.2417204539997,46,hands-67.jpg,bb98,5,vpnl,2024-02-18_15h53.52.794,alternatingbabyloc,2023.2.2,86.68938500864849,
,,,,,,,,597.7419823109994,46,hands-68.jpg,bb98,5,vpnl,2024-02-18_15h53.52.794,alternatingbabyloc,2023.2.2,86.68938500864849,
,,,,,,,,598.2420694479988,46,hands-69.jpg,bb98,5,vpnl,2024-02-18_15h53.52.794,alternatingbabyloc,2023.2.2,86.68938500864849,
,,,,,,,,598.741830930001,46,hands-70.jpg,bb98,5,vpnl,2024-02-18_15h53.52.794,alternatingbabyloc,2023.2.2,86.68938500864849,
,,,,,,,,599.2418483270012,46,hands-71.jpg,bb98,5,vpnl,2024-02-18_15h53.52.794,alternatingbabyloc,2023.2.2,86.68938500864849,
,,,,,,,,599.7418806069982,46,hands-72.jpg,bb98,5,vpnl,2024-02-18_15h53.52.794,alternatingbabyloc,2023.2.2,86.68938500864849,
,,,,,,,,600.2419737929995,47,cars-73.jpg,bb98,5,vpnl,2024-02-18_15h53.52.794,alternatingbabyloc,2023.2.2,86.68938500864849,
,,,,,,,,600.7416786860013,47,cars-74.jpg,bb98,5,vpnl,2024-02-18_15h53.52.794,alternatingbabyloc,2023.2.2,86.68938500864849,
,,,,,,,,601.2417216469985,47,cars-75.jpg,bb98,5,vpnl,2024-02-18_15h53.52.794,alternatingbabyloc,2023.2.2,86.68938500864849,
,,,,,,,,601.7416876309981,47,cars-76.jpg,bb98,5,vpnl,2024-02-18_15h53.52.794,alternatingbabyloc,2023.2.2,86.68938500864849,
,,,,,,,,602.2419456780008,47,cars-77.jpg,bb98,5,vpnl,2024-02-18_15h53.52.794,alternatingbabyloc,2023.2.2,86.68938500864849,
,,,,,,,,602.7419375559984,47,cars-78.jpg,bb98,5,vpnl,2024-02-18_15h53.52.794,alternatingbabyloc,2023.2.2,86.68938500864849,
,,,,,,,,603.2416362750009,47,cars-79.jpg,bb98,5,vpnl,2024-02-18_15h53.52.794,alternatingbabyloc,2023.2.2,86.68938500864849,
,,,,,,,,603.741739309,47,cars-80.jpg,bb98,5,vpnl,2024-02-18_15h53.52.794,alternatingbabyloc,2023.2.2,86.68938500864849,
,,,,,,,,604.2427607589998,48,blank-81.jpg,bb98,5,vpnl,2024-02-18_15h53.52.794,alternatingbabyloc,2023.2.2,86.68938500864849,
,,,,,,,,604.7418233309982,48,blank-82.jpg,bb98,5,vpnl,2024-02-18_15h53.52.794,alternatingbabyloc,2023.2.2,86.68938500864849,
,,,,,,,,605.2416065319994,48,blank-83.jpg,bb98,5,vpnl,2024-02-18_15h53.52.794,alternatingbabyloc,2023.2.2,86.68938500864849,
,,,,,,,,605.7417675840006,48,blank-84.jpg,bb98,5,vpnl,2024-02-18_15h53.52.794,alternatingbabyloc,2023.2.2,86.68938500864849,
,,,,,,,,606.2415556769993,48,blank-85.jpg,bb98,5,vpnl,2024-02-18_15h53.52.794,alternatingbabyloc,2023.2.2,86.68938500864849,
,,,,,,,,606.7416454449994,48,blank-86.jpg,bb98,5,vpnl,2024-02-18_15h53.52.794,alternatingbabyloc,2023.2.2,86.68938500864849,
,,,,,,,,607.2416420080008,48,blank-87.jpg,bb98,5,vpnl,2024-02-18_15h53.52.794,alternatingbabyloc,2023.2.2,86.68938500864849,
,,,,,,,,607.7417445430001,48,blank-88.jpg,bb98,5,vpnl,2024-02-18_15h53.52.794,alternatingbabyloc,2023.2.2,86.68938500864849,
,,,,,,,,608.2420579509999,49,faces-73.jpg,bb98,5,vpnl,2024-02-18_15h53.52.794,alternatingbabyloc,2023.2.2,86.68938500864849,
,,,,,,,,608.7417691919982,49,faces-74.jpg,bb98,5,vpnl,2024-02-18_15h53.52.794,alternatingbabyloc,2023.2.2,86.68938500864849,
,,,,,,,,609.2416688329977,49,faces-75.jpg,bb98,5,vpnl,2024-02-18_15h53.52.794,alternatingbabyloc,2023.2.2,86.68938500864849,
,,,,,,,,609.7416706990007,49,faces-76.jpg,bb98,5,vpnl,2024-02-18_15h53.52.794,alternatingbabyloc,2023.2.2,86.68938500864849,
,,,,,,,,610.2423918749992,49,faces-77.jpg,bb98,5,vpnl,2024-02-18_15h53.52.794,alternatingbabyloc,2023.2.2,86.68938500864849,
,,,,,,,,610.7415954409989,49,faces-78.jpg,bb98,5,vpnl,2024-02-18_15h53.52.794,alternatingbabyloc,2023.2.2,86.68938500864849,
,,,,,,,,611.2423092649988,49,faces-79.jpg,bb98,5,vpnl,2024-02-18_15h53.52.794,alternatingbabyloc,2023.2.2,86.68938500864849,
,,,,,,,,611.741490045999,49,faces-80.jpg,bb98,5,vpnl,2024-02-18_15h53.52.794,alternatingbabyloc,2023.2.2,86.68938500864849,
,,,,,,,,612.2417088789989,50,hands-73.jpg,bb98,5,vpnl,2024-02-18_15h53.52.794,alternatingbabyloc,2023.2.2,86.68938500864849,
,,,,,,,,612.7415829310012,50,hands-74.jpg,bb98,5,vpnl,2024-02-18_15h53.52.794,alternatingbabyloc,2023.2.2,86.68938500864849,
,,,,,,,,613.241654985999,50,hands-75.jpg,bb98,5,vpnl,2024-02-18_15h53.52.794,alternatingbabyloc,2023.2.2,86.68938500864849,
,,,,,,,,613.7414215329991,50,hands-76.jpg,bb98,5,vpnl,2024-02-18_15h53.52.794,alternatingbabyloc,2023.2.2,86.68938500864849,
,,,,,,,,614.2416853959985,50,hands-77.jpg,bb98,5,vpnl,2024-02-18_15h53.52.794,alternatingbabyloc,2023.2.2,86.68938500864849,
,,,,,,,,614.7415115069998,50,hands-78.jpg,bb98,5,vpnl,2024-02-18_15h53.52.794,alternatingbabyloc,2023.2.2,86.68938500864849,
,,,,,,,,615.241339188,50,hands-79.jpg,bb98,5,vpnl,2024-02-18_15h53.52.794,alternatingbabyloc,2023.2.2,86.68938500864849,
,,,,,,,,615.7413766559985,50,hands-80.jpg,bb98,5,vpnl,2024-02-18_15h53.52.794,alternatingbabyloc,2023.2.2,86.68938500864849,
,,,,,,,,616.2431368030011,51,scenes-73.jpg,bb98,5,vpnl,2024-02-18_15h53.52.794,alternatingbabyloc,2023.2.2,86.68938500864849,
,,,,,,,,616.7415371099996,51,scenes-74.jpg,bb98,5,vpnl,2024-02-18_15h53.52.794,alternatingbabyloc,2023.2.2,86.68938500864849,
,,,,,,,,617.2416136319989,51,scenes-75.jpg,bb98,5,vpnl,2024-02-18_15h53.52.794,alternatingbabyloc,2023.2.2,86.68938500864849,
,,,,,,,,617.741556631001,51,scenes-76.jpg,bb98,5,vpnl,2024-02-18_15h53.52.794,alternatingbabyloc,2023.2.2,86.68938500864849,
,,,,,,,,618.2418212759985,51,scenes-77.jpg,bb98,5,vpnl,2024-02-18_15h53.52.794,alternatingbabyloc,2023.2.2,86.68938500864849,
,,,,,,,,618.7411097149998,51,scenes-78.jpg,bb98,5,vpnl,2024-02-18_15h53.52.794,alternatingbabyloc,2023.2.2,86.68938500864849,
,,,,,,,,619.2413693369999,51,scenes-79.jpg,bb98,5,vpnl,2024-02-18_15h53.52.794,alternatingbabyloc,2023.2.2,86.68938500864849,
,,,,,,,,619.742917683001,51,scenes-80.jpg,bb98,5,vpnl,2024-02-18_15h53.52.794,alternatingbabyloc,2023.2.2,86.68938500864849,
,,,,,,,,620.2419313179998,52,blank-89.jpg,bb98,5,vpnl,2024-02-18_15h53.52.794,alternatingbabyloc,2023.2.2,86.68938500864849,
,,,,,,,,620.744300159,52,blank-90.jpg,bb98,5,vpnl,2024-02-18_15h53.52.794,alternatingbabyloc,2023.2.2,86.68938500864849,
,,,,,,,,621.2441870889998,52,blank-91.jpg,bb98,5,vpnl,2024-02-18_15h53.52.794,alternatingbabyloc,2023.2.2,86.68938500864849,
,,,,,,,,621.7434961979998,52,blank-92.jpg,bb98,5,vpnl,2024-02-18_15h53.52.794,alternatingbabyloc,2023.2.2,86.68938500864849,
,,,,,,,,622.2470929779993,52,blank-93.jpg,bb98,5,vpnl,2024-02-18_15h53.52.794,alternatingbabyloc,2023.2.2,86.68938500864849,
,,,,,,,,622.7443761819995,52,blank-94.jpg,bb98,5,vpnl,2024-02-18_15h53.52.794,alternatingbabyloc,2023.2.2,86.68938500864849,
,,,,,,,,623.2444007880003,52,blank-95.jpg,bb98,5,vpnl,2024-02-18_15h53.52.794,alternatingbabyloc,2023.2.2,86.68938500864849,
,,,,,,,,623.7444083439987,52,blank-96.jpg,bb98,5,vpnl,2024-02-18_15h53.52.794,alternatingbabyloc,2023.2.2,86.68938500864849,
,,,,,,,,624.2510231550004,53,hands-81.jpg,bb98,5,vpnl,2024-02-18_15h53.52.794,alternatingbabyloc,2023.2.2,86.68938500864849,
,,,,,,,,624.7433767170005,53,hands-82.jpg,bb98,5,vpnl,2024-02-18_15h53.52.794,alternatingbabyloc,2023.2.2,86.68938500864849,
,,,,,,,,625.2452999630004,53,hands-83.jpg,bb98,5,vpnl,2024-02-18_15h53.52.794,alternatingbabyloc,2023.2.2,86.68938500864849,
,,,,,,,,625.7462309269977,53,hands-84.jpg,bb98,5,vpnl,2024-02-18_15h53.52.794,alternatingbabyloc,2023.2.2,86.68938500864849,
,,,,,,,,626.2468260149981,53,hands-85.jpg,bb98,5,vpnl,2024-02-18_15h53.52.794,alternatingbabyloc,2023.2.2,86.68938500864849,
,,,,,,,,626.7470868560013,53,hands-86.jpg,bb98,5,vpnl,2024-02-18_15h53.52.794,alternatingbabyloc,2023.2.2,86.68938500864849,
,,,,,,,,627.2478654229999,53,hands-87.jpg,bb98,5,vpnl,2024-02-18_15h53.52.794,alternatingbabyloc,2023.2.2,86.68938500864849,
,,,,,,,,627.7491486969993,53,hands-88.jpg,bb98,5,vpnl,2024-02-18_15h53.52.794,alternatingbabyloc,2023.2.2,86.68938500864849,
,,,,,,,,628.2474811249995,54,faces-81.jpg,bb98,5,vpnl,2024-02-18_15h53.52.794,alternatingbabyloc,2023.2.2,86.68938500864849,
,,,,,,,,628.746317055,54,faces-82.jpg,bb98,5,vpnl,2024-02-18_15h53.52.794,alternatingbabyloc,2023.2.2,86.68938500864849,
,,,,,,,,629.2458758209978,54,faces-83.jpg,bb98,5,vpnl,2024-02-18_15h53.52.794,alternatingbabyloc,2023.2.2,86.68938500864849,
,,,,,,,,629.7459055319996,54,faces-84.jpg,bb98,5,vpnl,2024-02-18_15h53.52.794,alternatingbabyloc,2023.2.2,86.68938500864849,
,,,,,,,,630.2479332189978,54,faces-85.jpg,bb98,5,vpnl,2024-02-18_15h53.52.794,alternatingbabyloc,2023.2.2,86.68938500864849,
,,,,,,,,630.7468863499998,54,faces-86.jpg,bb98,5,vpnl,2024-02-18_15h53.52.794,alternatingbabyloc,2023.2.2,86.68938500864849,
,,,,,,,,631.246246161998,54,faces-87.jpg,bb98,5,vpnl,2024-02-18_15h53.52.794,alternatingbabyloc,2023.2.2,86.68938500864849,
,,,,,,,,631.7460165199991,54,faces-88.jpg,bb98,5,vpnl,2024-02-18_15h53.52.794,alternatingbabyloc,2023.2.2,86.68938500864849,
,,,,,,,,632.2491072249977,55,scenes-81.jpg,bb98,5,vpnl,2024-02-18_15h53.52.794,alternatingbabyloc,2023.2.2,86.68938500864849,
,,,,,,,,632.7464680099984,55,scenes-82.jpg,bb98,5,vpnl,2024-02-18_15h53.52.794,alternatingbabyloc,2023.2.2,86.68938500864849,
,,,,,,,,633.2503915519992,55,scenes-83.jpg,bb98,5,vpnl,2024-02-18_15h53.52.794,alternatingbabyloc,2023.2.2,86.68938500864849,
,,,,,,,,633.7458191859987,55,scenes-84.jpg,bb98,5,vpnl,2024-02-18_15h53.52.794,alternatingbabyloc,2023.2.2,86.68938500864849,
,,,,,,,,634.2515845109992,55,scenes-85.jpg,bb98,5,vpnl,2024-02-18_15h53.52.794,alternatingbabyloc,2023.2.2,86.68938500864849,
,,,,,,,,634.7458595370008,55,scenes-86.jpg,bb98,5,vpnl,2024-02-18_15h53.52.794,alternatingbabyloc,2023.2.2,86.68938500864849,
,,,,,,,,635.2462929110006,55,scenes-87.jpg,bb98,5,vpnl,2024-02-18_15h53.52.794,alternatingbabyloc,2023.2.2,86.68938500864849,
,,,,,,,,635.7462089039982,55,scenes-88.jpg,bb98,5,vpnl,2024-02-18_15h53.52.794,alternatingbabyloc,2023.2.2,86.68938500864849,
,,,,,,,,636.2464349479997,56,cars-81.jpg,bb98,5,vpnl,2024-02-18_15h53.52.794,alternatingbabyloc,2023.2.2,86.68938500864849,
,,,,,,,,636.7457951619981,56,cars-82.jpg,bb98,5,vpnl,2024-02-18_15h53.52.794,alternatingbabyloc,2023.2.2,86.68938500864849,
,,,,,,,,637.2473076710012,56,cars-83.jpg,bb98,5,vpnl,2024-02-18_15h53.52.794,alternatingbabyloc,2023.2.2,86.68938500864849,
,,,,,,,,637.7495852219981,56,cars-84.jpg,bb98,5,vpnl,2024-02-18_15h53.52.794,alternatingbabyloc,2023.2.2,86.68938500864849,
,,,,,,,,638.2472886649994,56,cars-85.jpg,bb98,5,vpnl,2024-02-18_15h53.52.794,alternatingbabyloc,2023.2.2,86.68938500864849,
,,,,,,,,638.7431024479993,56,cars-86.jpg,bb98,5,vpnl,2024-02-18_15h53.52.794,alternatingbabyloc,2023.2.2,86.68938500864849,
,,,,,,,,639.2477507139993,56,cars-87.jpg,bb98,5,vpnl,2024-02-18_15h53.52.794,alternatingbabyloc,2023.2.2,86.68938500864849,
,,,,,,,,639.7460078309996,56,cars-88.jpg,bb98,5,vpnl,2024-02-18_15h53.52.794,alternatingbabyloc,2023.2.2,86.68938500864849,
,,,,,,,,640.2477827879993,57,scenes-89.jpg,bb98,5,vpnl,2024-02-18_15h53.52.794,alternatingbabyloc,2023.2.2,86.68938500864849,
,,,,,,,,640.7428739850002,57,scenes-90.jpg,bb98,5,vpnl,2024-02-18_15h53.52.794,alternatingbabyloc,2023.2.2,86.68938500864849,
,,,,,,,,641.2460763210001,57,scenes-91.jpg,bb98,5,vpnl,2024-02-18_15h53.52.794,alternatingbabyloc,2023.2.2,86.68938500864849,
,,,,,,,,641.751911045998,57,scenes-92.jpg,bb98,5,vpnl,2024-02-18_15h53.52.794,alternatingbabyloc,2023.2.2,86.68938500864849,
,,,,,,,,642.2487856179978,57,scenes-93.jpg,bb98,5,vpnl,2024-02-18_15h53.52.794,alternatingbabyloc,2023.2.2,86.68938500864849,
,,,,,,,,642.7431712139987,57,scenes-94.jpg,bb98,5,vpnl,2024-02-18_15h53.52.794,alternatingbabyloc,2023.2.2,86.68938500864849,
,,,,,,,,643.241017422999,57,scenes-95.jpg,bb98,5,vpnl,2024-02-18_15h53.52.794,alternatingbabyloc,2023.2.2,86.68938500864849,
,,,,,,,,643.740942340999,57,scenes-96.jpg,bb98,5,vpnl,2024-02-18_15h53.52.794,alternatingbabyloc,2023.2.2,86.68938500864849,
,,,,,,,,644.2411553050006,58,hands-89.jpg,bb98,5,vpnl,2024-02-18_15h53.52.794,alternatingbabyloc,2023.2.2,86.68938500864849,
,,,,,,,,644.7409262969995,58,hands-90.jpg,bb98,5,vpnl,2024-02-18_15h53.52.794,alternatingbabyloc,2023.2.2,86.68938500864849,
,,,,,,,,645.2410803009989,58,hands-91.jpg,bb98,5,vpnl,2024-02-18_15h53.52.794,alternatingbabyloc,2023.2.2,86.68938500864849,
,,,,,,,,645.7408890279985,58,hands-92.jpg,bb98,5,vpnl,2024-02-18_15h53.52.794,alternatingbabyloc,2023.2.2,86.68938500864849,
,,,,,,,,646.2411970979992,58,hands-93.jpg,bb98,5,vpnl,2024-02-18_15h53.52.794,alternatingbabyloc,2023.2.2,86.68938500864849,
,,,,,,,,646.7408563099998,58,hands-94.jpg,bb98,5,vpnl,2024-02-18_15h53.52.794,alternatingbabyloc,2023.2.2,86.68938500864849,
,,,,,,,,647.2408718240004,58,hands-95.jpg,bb98,5,vpnl,2024-02-18_15h53.52.794,alternatingbabyloc,2023.2.2,86.68938500864849,
,,,,,,,,647.7412236220007,58,hands-96.jpg,bb98,5,vpnl,2024-02-18_15h53.52.794,alternatingbabyloc,2023.2.2,86.68938500864849,
,,,,,,,,648.2411211549988,59,cars-89.jpg,bb98,5,vpnl,2024-02-18_15h53.52.794,alternatingbabyloc,2023.2.2,86.68938500864849,
,,,,,,,,648.7410679389977,59,cars-90.jpg,bb98,5,vpnl,2024-02-18_15h53.52.794,alternatingbabyloc,2023.2.2,86.68938500864849,
,,,,,,,,649.2408558229981,59,cars-91.jpg,bb98,5,vpnl,2024-02-18_15h53.52.794,alternatingbabyloc,2023.2.2,86.68938500864849,
,,,,,,,,649.7409286459988,59,cars-92.jpg,bb98,5,vpnl,2024-02-18_15h53.52.794,alternatingbabyloc,2023.2.2,86.68938500864849,
,,,,,,,,650.2409883729997,59,cars-93.jpg,bb98,5,vpnl,2024-02-18_15h53.52.794,alternatingbabyloc,2023.2.2,86.68938500864849,
,,,,,,,,650.7407390500011,59,cars-94.jpg,bb98,5,vpnl,2024-02-18_15h53.52.794,alternatingbabyloc,2023.2.2,86.68938500864849,
,,,,,,,,651.2409010070005,59,cars-95.jpg,bb98,5,vpnl,2024-02-18_15h53.52.794,alternatingbabyloc,2023.2.2,86.68938500864849,
,,,,,,,,651.7407754609994,59,cars-96.jpg,bb98,5,vpnl,2024-02-18_15h53.52.794,alternatingbabyloc,2023.2.2,86.68938500864849,
,,,,,,,,652.2415576950007,60,faces-89.jpg,bb98,5,vpnl,2024-02-18_15h53.52.794,alternatingbabyloc,2023.2.2,86.68938500864849,
,,,,,,,,652.7408674459984,60,faces-90.jpg,bb98,5,vpnl,2024-02-18_15h53.52.794,alternatingbabyloc,2023.2.2,86.68938500864849,
,,,,,,,,653.2408422029985,60,faces-91.jpg,bb98,5,vpnl,2024-02-18_15h53.52.794,alternatingbabyloc,2023.2.2,86.68938500864849,
,,,,,,,,653.7409278630003,60,faces-92.jpg,bb98,5,vpnl,2024-02-18_15h53.52.794,alternatingbabyloc,2023.2.2,86.68938500864849,
,,,,,,,,654.2412083790005,60,faces-93.jpg,bb98,5,vpnl,2024-02-18_15h53.52.794,alternatingbabyloc,2023.2.2,86.68938500864849,
,,,,,,,,654.7409899009981,60,faces-94.jpg,bb98,5,vpnl,2024-02-18_15h53.52.794,alternatingbabyloc,2023.2.2,86.68938500864849,
,,,,,,,,655.2407738109978,60,faces-95.jpg,bb98,5,vpnl,2024-02-18_15h53.52.794,alternatingbabyloc,2023.2.2,86.68938500864849,
,,,,,,,,655.7405793969992,60,faces-96.jpg,bb98,5,vpnl,2024-02-18_15h53.52.794,alternatingbabyloc,2023.2.2,86.68938500864849,
,,,,,,,,656.2409277689985,61,blank-97.jpg,bb98,5,vpnl,2024-02-18_15h53.52.794,alternatingbabyloc,2023.2.2,86.68938500864849,
,,,,,,,,656.7406180819999,61,blank-98.jpg,bb98,5,vpnl,2024-02-18_15h53.52.794,alternatingbabyloc,2023.2.2,86.68938500864849,
,,,,,,,,657.2406037029978,61,blank-99.jpg,bb98,5,vpnl,2024-02-18_15h53.52.794,alternatingbabyloc,2023.2.2,86.68938500864849,
,,,,,,,,657.7403109459992,61,blank-100.jpg,bb98,5,vpnl,2024-02-18_15h53.52.794,alternatingbabyloc,2023.2.2,86.68938500864849,
,,,,,,,,658.2408399650012,61,blank-101.jpg,bb98,5,vpnl,2024-02-18_15h53.52.794,alternatingbabyloc,2023.2.2,86.68938500864849,
,,,,,,,,658.7408751529983,61,blank-102.jpg,bb98,5,vpnl,2024-02-18_15h53.52.794,alternatingbabyloc,2023.2.2,86.68938500864849,
,,,,,,,,659.2407035479991,61,blank-103.jpg,bb98,5,vpnl,2024-02-18_15h53.52.794,alternatingbabyloc,2023.2.2,86.68938500864849,
,,,,,,,,659.7476962209985,61,blank-104.jpg,bb98,5,vpnl,2024-02-18_15h53.52.794,alternatingbabyloc,2023.2.2,86.68938500864849,
,,,,,,,,660.2451742189987,62,blank-105.jpg,bb98,5,vpnl,2024-02-18_15h53.52.794,alternatingbabyloc,2023.2.2,86.68938500864849,
,,,,,,,,660.7478980630003,62,blank-106.jpg,bb98,5,vpnl,2024-02-18_15h53.52.794,alternatingbabyloc,2023.2.2,86.68938500864849,
,,,,,,,,661.2434411369977,62,blank-107.jpg,bb98,5,vpnl,2024-02-18_15h53.52.794,alternatingbabyloc,2023.2.2,86.68938500864849,
,,,,,,,,661.7466068860012,62,blank-108.jpg,bb98,5,vpnl,2024-02-18_15h53.52.794,alternatingbabyloc,2023.2.2,86.68938500864849,
,,,,,,,,662.2439129109989,62,blank-109.jpg,bb98,5,vpnl,2024-02-18_15h53.52.794,alternatingbabyloc,2023.2.2,86.68938500864849,
,,,,,,,,662.7444405469978,62,blank-110.jpg,bb98,5,vpnl,2024-02-18_15h53.52.794,alternatingbabyloc,2023.2.2,86.68938500864849,
,,,,,,,,663.2427305370002,62,blank-111.jpg,bb98,5,vpnl,2024-02-18_15h53.52.794,alternatingbabyloc,2023.2.2,86.68938500864849,
,,,,,,,,663.7433248950001,62,blank-112.jpg,bb98,5,vpnl,2024-02-18_15h53.52.794,alternatingbabyloc,2023.2.2,86.68938500864849,
