thisRow.t,notes,waiting_for_trigger_text.started,trigger.started,trigger.keys,trigger.rt,countdown.started,trial.stopped,stimuli.started,condition,stim_name,participant,run,user,date,expName,psychopyVersion,frameRate,
,,810.849846978992,810.849846978992,t,39.214653457005625,,,,,,DO,1,vpnl,2023-11-09_20h12.27.885,midbabyloc,2023.2.2,59.92761032444129,
,,,,,,850.0984707099997,45.242256427998655,856.1545977219939,1,blank.mp4,DO,1,vpnl,2023-11-09_20h12.27.885,midbabyloc,2023.2.2,59.92761032444129,
,,,,,,,,860.2786201319977,2,EC_hands_3.mp4,DO,1,vpnl,2023-11-09_20h12.27.885,midbabyloc,2023.2.2,59.92761032444129,
,,,,,,,,864.2953585279902,3,car5_1.mp4,DO,1,vpnl,2023-11-09_20h12.27.885,midbabyloc,2023.2.2,59.92761032444129,
,,,,,,,,868.2548335969914,4,IK_2.mp4,DO,1,vpnl,2023-11-09_20h12.27.885,midbabyloc,2023.2.2,59.92761032444129,
,,,,,,,,872.2691664099984,5,blank.mp4,DO,1,vpnl,2023-11-09_20h12.27.885,midbabyloc,2023.2.2,59.92761032444129,
,,,,,,,,876.268967016993,6,dam.mp4,DO,1,vpnl,2023-11-09_20h12.27.885,midbabyloc,2023.2.2,59.92761032444129,
,,,,,,,,880.2849892639933,7,KP_4.mp4,DO,1,vpnl,2023-11-09_20h12.27.885,midbabyloc,2023.2.2,59.92761032444129,
,,,,,,,,884.268781191,8,rccar_2.mp4,DO,1,vpnl,2023-11-09_20h12.27.885,midbabyloc,2023.2.2,59.92761032444129,
,,,,,,,,888.2542982059967,9,blank.mp4,DO,1,vpnl,2023-11-09_20h12.27.885,midbabyloc,2023.2.2,59.92761032444129,
,,,,,,,,892.2862247750018,10,BS_hands_3.mp4,DO,1,vpnl,2023-11-09_20h12.27.885,midbabyloc,2023.2.2,59.92761032444129,
,,,,,,,,896.290307696996,11,evergreenforeststream.mp4,DO,1,vpnl,2023-11-09_20h12.27.885,midbabyloc,2023.2.2,59.92761032444129,
,,,,,,,,900.2773576539912,12,blank.mp4,DO,1,vpnl,2023-11-09_20h12.27.885,midbabyloc,2023.2.2,59.92761032444129,
,,,,,,,,904.2707830889995,13,EC_3.mp4,DO,1,vpnl,2023-11-09_20h12.27.885,midbabyloc,2023.2.2,59.92761032444129,
,,,,,,,,908.260510645996,14,JC_hands_4.mp4,DO,1,vpnl,2023-11-09_20h12.27.885,midbabyloc,2023.2.2,59.92761032444129,
,,,,,,,,912.2891427949944,15,mountainrain.mp4,DO,1,vpnl,2023-11-09_20h12.27.885,midbabyloc,2023.2.2,59.92761032444129,
,,,,,,,,916.2911783519958,16,dumptruck5_1.mp4,DO,1,vpnl,2023-11-09_20h12.27.885,midbabyloc,2023.2.2,59.92761032444129,
,,,,,,,,920.2706876070006,17,BP_2.mp4,DO,1,vpnl,2023-11-09_20h12.27.885,midbabyloc,2023.2.2,59.92761032444129,
,,,,,,,,924.2516804289917,18,SS_hands_1.mp4,DO,1,vpnl,2023-11-09_20h12.27.885,midbabyloc,2023.2.2,59.92761032444129,
,,,,,,,,928.2626090150006,19,blank.mp4,DO,1,vpnl,2023-11-09_20h12.27.885,midbabyloc,2023.2.2,59.92761032444129,
,,,,,,,,932.2864041229914,20,mountainstreamblue.mp4,DO,1,vpnl,2023-11-09_20h12.27.885,midbabyloc,2023.2.2,59.92761032444129,
,,,,,,,,936.2926140449999,21,car3_1.mp4,DO,1,vpnl,2023-11-09_20h12.27.885,midbabyloc,2023.2.2,59.92761032444129,
,,,,,,,,940.283617448993,22,IK_hands_4.mp4,DO,1,vpnl,2023-11-09_20h12.27.885,midbabyloc,2023.2.2,59.92761032444129,
,,,,,,,,944.2750325230008,23,JO_4.mp4,DO,1,vpnl,2023-11-09_20h12.27.885,midbabyloc,2023.2.2,59.92761032444129,
,,,,,,,,948.282994158988,24,mossyrockstream.mp4,DO,1,vpnl,2023-11-09_20h12.27.885,midbabyloc,2023.2.2,59.92761032444129,
,,,,,,,,952.2608417339943,25,blank.mp4,DO,1,vpnl,2023-11-09_20h12.27.885,midbabyloc,2023.2.2,59.92761032444129,
,,,,,,,,956.2893857979943,26,car9_1.mp4,DO,1,vpnl,2023-11-09_20h12.27.885,midbabyloc,2023.2.2,59.92761032444129,
,,,,,,,,960.3035576339898,27,bluemistystream.mp4,DO,1,vpnl,2023-11-09_20h12.27.885,midbabyloc,2023.2.2,59.92761032444129,
,,,,,,,,964.2747677929874,28,blueexcavator_9.mp4,DO,1,vpnl,2023-11-09_20h12.27.885,midbabyloc,2023.2.2,59.92761032444129,
,,,,,,,,968.2633086360001,29,SS_1.mp4,DO,1,vpnl,2023-11-09_20h12.27.885,midbabyloc,2023.2.2,59.92761032444129,
,,,,,,,,972.2924681729928,30,KP_hands_1.mp4,DO,1,vpnl,2023-11-09_20h12.27.885,midbabyloc,2023.2.2,59.92761032444129,
,,,,,,,,976.2576686370012,31,blank.mp4,DO,1,vpnl,2023-11-09_20h12.27.885,midbabyloc,2023.2.2,59.92761032444129,
,,,,,,,,980.2657074229937,32,dumptruck6_1.mp4,DO,1,vpnl,2023-11-09_20h12.27.885,midbabyloc,2023.2.2,59.92761032444129,
,,,,,,,,984.2656063259928,33,beachwithdriftwood.mp4,DO,1,vpnl,2023-11-09_20h12.27.885,midbabyloc,2023.2.2,59.92761032444129,
,,,,,,,,988.2572518339875,34,KW_hands_4.mp4,DO,1,vpnl,2023-11-09_20h12.27.885,midbabyloc,2023.2.2,59.92761032444129,
,,,,,,,,992.2938990799885,35,blank.mp4,DO,1,vpnl,2023-11-09_20h12.27.885,midbabyloc,2023.2.2,59.92761032444129,
,,,,,,,,996.2643858029915,36,JC_2.mp4,DO,1,vpnl,2023-11-09_20h12.27.885,midbabyloc,2023.2.2,59.92761032444129,
,,,,,,,,1000.2724717339879,37,AX_hands_1.mp4,DO,1,vpnl,2023-11-09_20h12.27.885,midbabyloc,2023.2.2,59.92761032444129,
,,,,,,,,1004.2573181449989,38,shadybluewaterfall.mp4,DO,1,vpnl,2023-11-09_20h12.27.885,midbabyloc,2023.2.2,59.92761032444129,
,,,,,,,,1008.2806605840015,39,dumptruck3_1.mp4,DO,1,vpnl,2023-11-09_20h12.27.885,midbabyloc,2023.2.2,59.92761032444129,
,,,,,,,,1012.2683547659981,40,blank.mp4,DO,1,vpnl,2023-11-09_20h12.27.885,midbabyloc,2023.2.2,59.92761032444129,
,,,,,,,,1016.2701634929981,41,JY_1.mp4,DO,1,vpnl,2023-11-09_20h12.27.885,midbabyloc,2023.2.2,59.92761032444129,
,,,,,,,,1020.257654614994,42,blank.mp4,DO,1,vpnl,2023-11-09_20h12.27.885,midbabyloc,2023.2.2,59.92761032444129,
