thisRow.t,notes,waiting_for_trigger_text.started,trigger.started,trigger.keys,trigger.rt,countdown.started,trial.stopped,stimuli.started,condition,stim_name,participant,run,user,date,expName,psychopyVersion,frameRate,
,,39.97780617799435,39.97780617799435,t,23.236518293007975,,,,,,DO,1,vpnl,2023-11-09_20h12.27.885,midbabyloc,2023.2.2,59.92761032444129,
,,,,,,63.248068576998776,29.27819343098963,69.26119895000011,1,blank-1.jpg,DO,1,vpnl,2023-11-09_20h12.27.885,midbabyloc,2023.2.2,59.92761032444129,
,,,,,,,,69.76139859799878,1,blank-2.jpg,DO,1,vpnl,2023-11-09_20h12.27.885,midbabyloc,2023.2.2,59.92761032444129,
,,,,,,,,70.26082196900097,1,blank-3.jpg,DO,1,vpnl,2023-11-09_20h12.27.885,midbabyloc,2023.2.2,59.92761032444129,
,,,,,,,,70.76166912799818,1,blank-4.jpg,DO,1,vpnl,2023-11-09_20h12.27.885,midbabyloc,2023.2.2,59.92761032444129,
,,,,,,,,71.2607965599891,1,blank-5.jpg,DO,1,vpnl,2023-11-09_20h12.27.885,midbabyloc,2023.2.2,59.92761032444129,
,,,,,,,,71.75995259599586,1,blank-6.jpg,DO,1,vpnl,2023-11-09_20h12.27.885,midbabyloc,2023.2.2,59.92761032444129,
,,,,,,,,72.26046276598936,1,blank-7.jpg,DO,1,vpnl,2023-11-09_20h12.27.885,midbabyloc,2023.2.2,59.92761032444129,
,,,,,,,,72.75669081399974,1,blank-8.jpg,DO,1,vpnl,2023-11-09_20h12.27.885,midbabyloc,2023.2.2,59.92761032444129,
,,,,,,,,73.25668249199225,2,faces-1.jpg,DO,1,vpnl,2023-11-09_20h12.27.885,midbabyloc,2023.2.2,59.92761032444129,
,,,,,,,,73.757738358996,2,faces-2.jpg,DO,1,vpnl,2023-11-09_20h12.27.885,midbabyloc,2023.2.2,59.92761032444129,
,,,,,,,,74.25687497098988,2,faces-3.jpg,DO,1,vpnl,2023-11-09_20h12.27.885,midbabyloc,2023.2.2,59.92761032444129,
,,,,,,,,74.75685989799968,2,faces-4.jpg,DO,1,vpnl,2023-11-09_20h12.27.885,midbabyloc,2023.2.2,59.92761032444129,
,,,,,,,,75.25718630998745,2,faces-5.jpg,DO,1,vpnl,2023-11-09_20h12.27.885,midbabyloc,2023.2.2,59.92761032444129,
,,,,,,,,75.75692197299213,2,faces-6.jpg,DO,1,vpnl,2023-11-09_20h12.27.885,midbabyloc,2023.2.2,59.92761032444129,
,,,,,,,,76.25664390499878,2,faces-7.jpg,DO,1,vpnl,2023-11-09_20h12.27.885,midbabyloc,2023.2.2,59.92761032444129,
,,,,,,,,76.7572104610008,2,faces-8.jpg,DO,1,vpnl,2023-11-09_20h12.27.885,midbabyloc,2023.2.2,59.92761032444129,
,,,,,,,,77.25751260499237,3,cars-1.jpg,DO,1,vpnl,2023-11-09_20h12.27.885,midbabyloc,2023.2.2,59.92761032444129,
,,,,,,,,77.7588689839904,3,cars-2.jpg,DO,1,vpnl,2023-11-09_20h12.27.885,midbabyloc,2023.2.2,59.92761032444129,
,,,,,,,,78.25715383898932,3,cars-3.jpg,DO,1,vpnl,2023-11-09_20h12.27.885,midbabyloc,2023.2.2,59.92761032444129,
,,,,,,,,78.7567564429919,3,cars-4.jpg,DO,1,vpnl,2023-11-09_20h12.27.885,midbabyloc,2023.2.2,59.92761032444129,
,,,,,,,,79.25663762399927,3,cars-5.jpg,DO,1,vpnl,2023-11-09_20h12.27.885,midbabyloc,2023.2.2,59.92761032444129,
,,,,,,,,79.75655060198915,3,cars-6.jpg,DO,1,vpnl,2023-11-09_20h12.27.885,midbabyloc,2023.2.2,59.92761032444129,
,,,,,,,,80.25614459998906,3,cars-7.jpg,DO,1,vpnl,2023-11-09_20h12.27.885,midbabyloc,2023.2.2,59.92761032444129,
,,,,,,,,80.75724754198745,3,cars-8.jpg,DO,1,vpnl,2023-11-09_20h12.27.885,midbabyloc,2023.2.2,59.92761032444129,
,,,,,,,,81.25636402999226,4,hands-1.jpg,DO,1,vpnl,2023-11-09_20h12.27.885,midbabyloc,2023.2.2,59.92761032444129,
,,,,,,,,81.75608764999197,4,hands-2.jpg,DO,1,vpnl,2023-11-09_20h12.27.885,midbabyloc,2023.2.2,59.92761032444129,
,,,,,,,,82.25696485399385,4,hands-3.jpg,DO,1,vpnl,2023-11-09_20h12.27.885,midbabyloc,2023.2.2,59.92761032444129,
,,,,,,,,82.7561227769911,4,hands-4.jpg,DO,1,vpnl,2023-11-09_20h12.27.885,midbabyloc,2023.2.2,59.92761032444129,
,,,,,,,,83.25656795800023,4,hands-5.jpg,DO,1,vpnl,2023-11-09_20h12.27.885,midbabyloc,2023.2.2,59.92761032444129,
,,,,,,,,83.75630958798865,4,hands-6.jpg,DO,1,vpnl,2023-11-09_20h12.27.885,midbabyloc,2023.2.2,59.92761032444129,
,,,,,,,,84.25678048699046,4,hands-7.jpg,DO,1,vpnl,2023-11-09_20h12.27.885,midbabyloc,2023.2.2,59.92761032444129,
,,,,,,,,84.75717318599345,4,hands-8.jpg,DO,1,vpnl,2023-11-09_20h12.27.885,midbabyloc,2023.2.2,59.92761032444129,
,,,,,,,,85.25705791299697,5,blank-9.jpg,DO,1,vpnl,2023-11-09_20h12.27.885,midbabyloc,2023.2.2,59.92761032444129,
,,,,,,,,85.75759624000057,5,blank-10.jpg,DO,1,vpnl,2023-11-09_20h12.27.885,midbabyloc,2023.2.2,59.92761032444129,
,,,,,,,,86.256900761,5,blank-11.jpg,DO,1,vpnl,2023-11-09_20h12.27.885,midbabyloc,2023.2.2,59.92761032444129,
,,,,,,,,86.75664123099705,5,blank-12.jpg,DO,1,vpnl,2023-11-09_20h12.27.885,midbabyloc,2023.2.2,59.92761032444129,
,,,,,,,,87.25663708998763,5,blank-13.jpg,DO,1,vpnl,2023-11-09_20h12.27.885,midbabyloc,2023.2.2,59.92761032444129,
,,,,,,,,87.75655679299962,5,blank-14.jpg,DO,1,vpnl,2023-11-09_20h12.27.885,midbabyloc,2023.2.2,59.92761032444129,
,,,,,,,,88.256064014,5,blank-15.jpg,DO,1,vpnl,2023-11-09_20h12.27.885,midbabyloc,2023.2.2,59.92761032444129,
,,,,,,,,88.75606309498835,5,blank-16.jpg,DO,1,vpnl,2023-11-09_20h12.27.885,midbabyloc,2023.2.2,59.92761032444129,
,,,,,,,,89.25776522599335,6,scenes-1.jpg,DO,1,vpnl,2023-11-09_20h12.27.885,midbabyloc,2023.2.2,59.92761032444129,
,,,,,,,,89.75648582699068,6,scenes-2.jpg,DO,1,vpnl,2023-11-09_20h12.27.885,midbabyloc,2023.2.2,59.92761032444129,
,,,,,,,,90.25656461699691,6,scenes-3.jpg,DO,1,vpnl,2023-11-09_20h12.27.885,midbabyloc,2023.2.2,59.92761032444129,
,,,,,,,,90.75661338199279,6,scenes-4.jpg,DO,1,vpnl,2023-11-09_20h12.27.885,midbabyloc,2023.2.2,59.92761032444129,
,,,,,,,,91.25644813998952,6,scenes-5.jpg,DO,1,vpnl,2023-11-09_20h12.27.885,midbabyloc,2023.2.2,59.92761032444129,
,,,,,,,,91.75676097998803,6,scenes-6.jpg,DO,1,vpnl,2023-11-09_20h12.27.885,midbabyloc,2023.2.2,59.92761032444129,
,,,,,,,,92.25748830699013,6,scenes-7.jpg,DO,1,vpnl,2023-11-09_20h12.27.885,midbabyloc,2023.2.2,59.92761032444129,
,,,,,,,,92.75653914999566,6,scenes-8.jpg,DO,1,vpnl,2023-11-09_20h12.27.885,midbabyloc,2023.2.2,59.92761032444129,
,,,,,,,,93.25735445799364,7,cars-9.jpg,DO,1,vpnl,2023-11-09_20h12.27.885,midbabyloc,2023.2.2,59.92761032444129,
,,,,,,,,93.75656470199465,7,cars-10.jpg,DO,1,vpnl,2023-11-09_20h12.27.885,midbabyloc,2023.2.2,59.92761032444129,
,,,,,,,,94.25656098699255,7,cars-11.jpg,DO,1,vpnl,2023-11-09_20h12.27.885,midbabyloc,2023.2.2,59.92761032444129,
,,,,,,,,94.75736373299151,7,cars-12.jpg,DO,1,vpnl,2023-11-09_20h12.27.885,midbabyloc,2023.2.2,59.92761032444129,
,,,,,,,,95.25743643799797,7,cars-13.jpg,DO,1,vpnl,2023-11-09_20h12.27.885,midbabyloc,2023.2.2,59.92761032444129,
,,,,,,,,95.75757276499644,7,cars-14.jpg,DO,1,vpnl,2023-11-09_20h12.27.885,midbabyloc,2023.2.2,59.92761032444129,
,,,,,,,,96.25659771199571,7,cars-15.jpg,DO,1,vpnl,2023-11-09_20h12.27.885,midbabyloc,2023.2.2,59.92761032444129,
,,,,,,,,96.75657148299797,7,cars-16.jpg,DO,1,vpnl,2023-11-09_20h12.27.885,midbabyloc,2023.2.2,59.92761032444129,
,,,,,,,,97.25733717699768,8,hands-9.jpg,DO,1,vpnl,2023-11-09_20h12.27.885,midbabyloc,2023.2.2,59.92761032444129,
,,,,,,,,97.75753981799062,8,hands-10.jpg,DO,1,vpnl,2023-11-09_20h12.27.885,midbabyloc,2023.2.2,59.92761032444129,
,,,,,,,,98.25730650899641,8,hands-11.jpg,DO,1,vpnl,2023-11-09_20h12.27.885,midbabyloc,2023.2.2,59.92761032444129,
,,,,,,,,98.7564005109889,8,hands-12.jpg,DO,1,vpnl,2023-11-09_20h12.27.885,midbabyloc,2023.2.2,59.92761032444129,
,,,,,,,,99.25688993599033,8,hands-13.jpg,DO,1,vpnl,2023-11-09_20h12.27.885,midbabyloc,2023.2.2,59.92761032444129,
,,,,,,,,99.7573022969882,8,hands-14.jpg,DO,1,vpnl,2023-11-09_20h12.27.885,midbabyloc,2023.2.2,59.92761032444129,
,,,,,,,,100.25728043999698,8,hands-15.jpg,DO,1,vpnl,2023-11-09_20h12.27.885,midbabyloc,2023.2.2,59.92761032444129,
,,,,,,,,100.75658227399981,8,hands-16.jpg,DO,1,vpnl,2023-11-09_20h12.27.885,midbabyloc,2023.2.2,59.92761032444129,
,,,,,,,,101.25652153299598,9,scenes-9.jpg,DO,1,vpnl,2023-11-09_20h12.27.885,midbabyloc,2023.2.2,59.92761032444129,
,,,,,,,,101.75897230299597,9,scenes-10.jpg,DO,1,vpnl,2023-11-09_20h12.27.885,midbabyloc,2023.2.2,59.92761032444129,
,,,,,,,,102.25726308400044,9,scenes-11.jpg,DO,1,vpnl,2023-11-09_20h12.27.885,midbabyloc,2023.2.2,59.92761032444129,
,,,,,,,,102.75631147199601,9,scenes-12.jpg,DO,1,vpnl,2023-11-09_20h12.27.885,midbabyloc,2023.2.2,59.92761032444129,
,,,,,,,,103.2586212909955,9,scenes-13.jpg,DO,1,vpnl,2023-11-09_20h12.27.885,midbabyloc,2023.2.2,59.92761032444129,
,,,,,,,,103.75719770298747,9,scenes-14.jpg,DO,1,vpnl,2023-11-09_20h12.27.885,midbabyloc,2023.2.2,59.92761032444129,
,,,,,,,,104.2574188610015,9,scenes-15.jpg,DO,1,vpnl,2023-11-09_20h12.27.885,midbabyloc,2023.2.2,59.92761032444129,
,,,,,,,,104.75614716799464,9,scenes-16.jpg,DO,1,vpnl,2023-11-09_20h12.27.885,midbabyloc,2023.2.2,59.92761032444129,
,,,,,,,,105.25807308199,10,faces-9.jpg,DO,1,vpnl,2023-11-09_20h12.27.885,midbabyloc,2023.2.2,59.92761032444129,
,,,,,,,,105.75571649799531,10,faces-10.jpg,DO,1,vpnl,2023-11-09_20h12.27.885,midbabyloc,2023.2.2,59.92761032444129,
,,,,,,,,106.25711104899528,10,faces-11.jpg,DO,1,vpnl,2023-11-09_20h12.27.885,midbabyloc,2023.2.2,59.92761032444129,
,,,,,,,,106.75579179498891,10,faces-12.jpg,DO,1,vpnl,2023-11-09_20h12.27.885,midbabyloc,2023.2.2,59.92761032444129,
,,,,,,,,107.25719444800052,10,faces-13.jpg,DO,1,vpnl,2023-11-09_20h12.27.885,midbabyloc,2023.2.2,59.92761032444129,
,,,,,,,,107.75598597199132,10,faces-14.jpg,DO,1,vpnl,2023-11-09_20h12.27.885,midbabyloc,2023.2.2,59.92761032444129,
,,,,,,,,108.25563539699942,10,faces-15.jpg,DO,1,vpnl,2023-11-09_20h12.27.885,midbabyloc,2023.2.2,59.92761032444129,
,,,,,,,,108.75581431698811,10,faces-16.jpg,DO,1,vpnl,2023-11-09_20h12.27.885,midbabyloc,2023.2.2,59.92761032444129,
,,,,,,,,109.25601351399382,11,blank-17.jpg,DO,1,vpnl,2023-11-09_20h12.27.885,midbabyloc,2023.2.2,59.92761032444129,
,,,,,,,,109.7571417339932,11,blank-18.jpg,DO,1,vpnl,2023-11-09_20h12.27.885,midbabyloc,2023.2.2,59.92761032444129,
,,,,,,,,110.25698423299764,11,blank-19.jpg,DO,1,vpnl,2023-11-09_20h12.27.885,midbabyloc,2023.2.2,59.92761032444129,
,,,,,,,,110.75643950299127,11,blank-20.jpg,DO,1,vpnl,2023-11-09_20h12.27.885,midbabyloc,2023.2.2,59.92761032444129,
,,,,,,,,111.25582587299868,11,blank-21.jpg,DO,1,vpnl,2023-11-09_20h12.27.885,midbabyloc,2023.2.2,59.92761032444129,
,,,,,,,,111.75684570999874,11,blank-22.jpg,DO,1,vpnl,2023-11-09_20h12.27.885,midbabyloc,2023.2.2,59.92761032444129,
,,,,,,,,112.25699750999047,11,blank-23.jpg,DO,1,vpnl,2023-11-09_20h12.27.885,midbabyloc,2023.2.2,59.92761032444129,
,,,,,,,,112.75717045599595,11,blank-24.jpg,DO,1,vpnl,2023-11-09_20h12.27.885,midbabyloc,2023.2.2,59.92761032444129,
,,,,,,,,113.25704096899426,12,faces-17.jpg,DO,1,vpnl,2023-11-09_20h12.27.885,midbabyloc,2023.2.2,59.92761032444129,
,,,,,,,,113.75688657899445,12,faces-18.jpg,DO,1,vpnl,2023-11-09_20h12.27.885,midbabyloc,2023.2.2,59.92761032444129,
,,,,,,,,114.25684879400069,12,faces-19.jpg,DO,1,vpnl,2023-11-09_20h12.27.885,midbabyloc,2023.2.2,59.92761032444129,
,,,,,,,,114.75709343398921,12,faces-20.jpg,DO,1,vpnl,2023-11-09_20h12.27.885,midbabyloc,2023.2.2,59.92761032444129,
,,,,,,,,115.25719548598863,12,faces-21.jpg,DO,1,vpnl,2023-11-09_20h12.27.885,midbabyloc,2023.2.2,59.92761032444129,
,,,,,,,,115.75663301500026,12,faces-22.jpg,DO,1,vpnl,2023-11-09_20h12.27.885,midbabyloc,2023.2.2,59.92761032444129,
,,,,,,,,116.2585551230004,12,faces-23.jpg,DO,1,vpnl,2023-11-09_20h12.27.885,midbabyloc,2023.2.2,59.92761032444129,
,,,,,,,,116.76517188099388,12,faces-24.jpg,DO,1,vpnl,2023-11-09_20h12.27.885,midbabyloc,2023.2.2,59.92761032444129,
,,,,,,,,117.25684860099864,13,blank-25.jpg,DO,1,vpnl,2023-11-09_20h12.27.885,midbabyloc,2023.2.2,59.92761032444129,
,,,,,,,,117.75838253799884,13,blank-26.jpg,DO,1,vpnl,2023-11-09_20h12.27.885,midbabyloc,2023.2.2,59.92761032444129,
,,,,,,,,118.25801023098757,13,blank-27.jpg,DO,1,vpnl,2023-11-09_20h12.27.885,midbabyloc,2023.2.2,59.92761032444129,
,,,,,,,,118.75612440999248,13,blank-28.jpg,DO,1,vpnl,2023-11-09_20h12.27.885,midbabyloc,2023.2.2,59.92761032444129,
,,,,,,,,119.25705727099557,13,blank-29.jpg,DO,1,vpnl,2023-11-09_20h12.27.885,midbabyloc,2023.2.2,59.92761032444129,
,,,,,,,,119.75768445400172,13,blank-30.jpg,DO,1,vpnl,2023-11-09_20h12.27.885,midbabyloc,2023.2.2,59.92761032444129,
,,,,,,,,120.25554629699036,13,blank-31.jpg,DO,1,vpnl,2023-11-09_20h12.27.885,midbabyloc,2023.2.2,59.92761032444129,
,,,,,,,,120.75876866199542,13,blank-32.jpg,DO,1,vpnl,2023-11-09_20h12.27.885,midbabyloc,2023.2.2,59.92761032444129,
,,,,,,,,121.2557338619954,14,cars-17.jpg,DO,1,vpnl,2023-11-09_20h12.27.885,midbabyloc,2023.2.2,59.92761032444129,
,,,,,,,,121.75536470299994,14,cars-18.jpg,DO,1,vpnl,2023-11-09_20h12.27.885,midbabyloc,2023.2.2,59.92761032444129,
,,,,,,,,122.25582416998805,14,cars-19.jpg,DO,1,vpnl,2023-11-09_20h12.27.885,midbabyloc,2023.2.2,59.92761032444129,
,,,,,,,,122.75539809699694,14,cars-20.jpg,DO,1,vpnl,2023-11-09_20h12.27.885,midbabyloc,2023.2.2,59.92761032444129,
,,,,,,,,123.25700009099091,14,cars-21.jpg,DO,1,vpnl,2023-11-09_20h12.27.885,midbabyloc,2023.2.2,59.92761032444129,
,,,,,,,,123.75553338699683,14,cars-22.jpg,DO,1,vpnl,2023-11-09_20h12.27.885,midbabyloc,2023.2.2,59.92761032444129,
,,,,,,,,124.255352305001,14,cars-23.jpg,DO,1,vpnl,2023-11-09_20h12.27.885,midbabyloc,2023.2.2,59.92761032444129,
,,,,,,,,124.75568665399624,14,cars-24.jpg,DO,1,vpnl,2023-11-09_20h12.27.885,midbabyloc,2023.2.2,59.92761032444129,
,,,,,,,,125.25533506298962,15,scenes-17.jpg,DO,1,vpnl,2023-11-09_20h12.27.885,midbabyloc,2023.2.2,59.92761032444129,
,,,,,,,,125.75534857899765,15,scenes-18.jpg,DO,1,vpnl,2023-11-09_20h12.27.885,midbabyloc,2023.2.2,59.92761032444129,
,,,,,,,,126.25709237898991,15,scenes-19.jpg,DO,1,vpnl,2023-11-09_20h12.27.885,midbabyloc,2023.2.2,59.92761032444129,
,,,,,,,,126.75799185899086,15,scenes-20.jpg,DO,1,vpnl,2023-11-09_20h12.27.885,midbabyloc,2023.2.2,59.92761032444129,
,,,,,,,,127.25550856599875,15,scenes-21.jpg,DO,1,vpnl,2023-11-09_20h12.27.885,midbabyloc,2023.2.2,59.92761032444129,
,,,,,,,,127.75710674098809,15,scenes-22.jpg,DO,1,vpnl,2023-11-09_20h12.27.885,midbabyloc,2023.2.2,59.92761032444129,
,,,,,,,,128.25836068698845,15,scenes-23.jpg,DO,1,vpnl,2023-11-09_20h12.27.885,midbabyloc,2023.2.2,59.92761032444129,
,,,,,,,,128.7552111799887,15,scenes-24.jpg,DO,1,vpnl,2023-11-09_20h12.27.885,midbabyloc,2023.2.2,59.92761032444129,
,,,,,,,,129.25665968099202,16,hands-17.jpg,DO,1,vpnl,2023-11-09_20h12.27.885,midbabyloc,2023.2.2,59.92761032444129,
,,,,,,,,129.7552612409927,16,hands-18.jpg,DO,1,vpnl,2023-11-09_20h12.27.885,midbabyloc,2023.2.2,59.92761032444129,
,,,,,,,,130.2551748459955,16,hands-19.jpg,DO,1,vpnl,2023-11-09_20h12.27.885,midbabyloc,2023.2.2,59.92761032444129,
,,,,,,,,130.75545990098908,16,hands-20.jpg,DO,1,vpnl,2023-11-09_20h12.27.885,midbabyloc,2023.2.2,59.92761032444129,
,,,,,,,,131.25531543999386,16,hands-21.jpg,DO,1,vpnl,2023-11-09_20h12.27.885,midbabyloc,2023.2.2,59.92761032444129,
,,,,,,,,131.75518537999596,16,hands-22.jpg,DO,1,vpnl,2023-11-09_20h12.27.885,midbabyloc,2023.2.2,59.92761032444129,
,,,,,,,,132.2555652729934,16,hands-23.jpg,DO,1,vpnl,2023-11-09_20h12.27.885,midbabyloc,2023.2.2,59.92761032444129,
,,,,,,,,132.7567026350007,16,hands-24.jpg,DO,1,vpnl,2023-11-09_20h12.27.885,midbabyloc,2023.2.2,59.92761032444129,
,,,,,,,,133.2551644139894,17,blank-33.jpg,DO,1,vpnl,2023-11-09_20h12.27.885,midbabyloc,2023.2.2,59.92761032444129,
,,,,,,,,133.75650113499432,17,blank-34.jpg,DO,1,vpnl,2023-11-09_20h12.27.885,midbabyloc,2023.2.2,59.92761032444129,
,,,,,,,,134.25682770500134,17,blank-35.jpg,DO,1,vpnl,2023-11-09_20h12.27.885,midbabyloc,2023.2.2,59.92761032444129,
,,,,,,,,134.75659073299903,17,blank-36.jpg,DO,1,vpnl,2023-11-09_20h12.27.885,midbabyloc,2023.2.2,59.92761032444129,
,,,,,,,,135.2561352779885,17,blank-37.jpg,DO,1,vpnl,2023-11-09_20h12.27.885,midbabyloc,2023.2.2,59.92761032444129,
,,,,,,,,135.75680157198803,17,blank-38.jpg,DO,1,vpnl,2023-11-09_20h12.27.885,midbabyloc,2023.2.2,59.92761032444129,
,,,,,,,,136.25640081499296,17,blank-39.jpg,DO,1,vpnl,2023-11-09_20h12.27.885,midbabyloc,2023.2.2,59.92761032444129,
,,,,,,,,136.75846522700158,17,blank-40.jpg,DO,1,vpnl,2023-11-09_20h12.27.885,midbabyloc,2023.2.2,59.92761032444129,
,,,,,,,,137.25788955199823,18,faces-25.jpg,DO,1,vpnl,2023-11-09_20h12.27.885,midbabyloc,2023.2.2,59.92761032444129,
,,,,,,,,137.75635066599352,18,faces-26.jpg,DO,1,vpnl,2023-11-09_20h12.27.885,midbabyloc,2023.2.2,59.92761032444129,
,,,,,,,,138.25671463599429,18,faces-27.jpg,DO,1,vpnl,2023-11-09_20h12.27.885,midbabyloc,2023.2.2,59.92761032444129,
,,,,,,,,138.75745977499173,18,faces-28.jpg,DO,1,vpnl,2023-11-09_20h12.27.885,midbabyloc,2023.2.2,59.92761032444129,
,,,,,,,,139.25626501700026,18,faces-29.jpg,DO,1,vpnl,2023-11-09_20h12.27.885,midbabyloc,2023.2.2,59.92761032444129,
,,,,,,,,139.75615762898815,18,faces-30.jpg,DO,1,vpnl,2023-11-09_20h12.27.885,midbabyloc,2023.2.2,59.92761032444129,
,,,,,,,,140.25741456699325,18,faces-31.jpg,DO,1,vpnl,2023-11-09_20h12.27.885,midbabyloc,2023.2.2,59.92761032444129,
,,,,,,,,140.75653985899407,18,faces-32.jpg,DO,1,vpnl,2023-11-09_20h12.27.885,midbabyloc,2023.2.2,59.92761032444129,
,,,,,,,,141.25889341699076,19,hands-25.jpg,DO,1,vpnl,2023-11-09_20h12.27.885,midbabyloc,2023.2.2,59.92761032444129,
,,,,,,,,141.75507906598796,19,hands-26.jpg,DO,1,vpnl,2023-11-09_20h12.27.885,midbabyloc,2023.2.2,59.92761032444129,
,,,,,,,,142.25630494199868,19,hands-27.jpg,DO,1,vpnl,2023-11-09_20h12.27.885,midbabyloc,2023.2.2,59.92761032444129,
,,,,,,,,142.75494186999276,19,hands-28.jpg,DO,1,vpnl,2023-11-09_20h12.27.885,midbabyloc,2023.2.2,59.92761032444129,
,,,,,,,,143.25615741299407,19,hands-29.jpg,DO,1,vpnl,2023-11-09_20h12.27.885,midbabyloc,2023.2.2,59.92761032444129,
,,,,,,,,143.75616600298963,19,hands-30.jpg,DO,1,vpnl,2023-11-09_20h12.27.885,midbabyloc,2023.2.2,59.92761032444129,
,,,,,,,,144.2578850689897,19,hands-31.jpg,DO,1,vpnl,2023-11-09_20h12.27.885,midbabyloc,2023.2.2,59.92761032444129,
,,,,,,,,144.75495937399683,19,hands-32.jpg,DO,1,vpnl,2023-11-09_20h12.27.885,midbabyloc,2023.2.2,59.92761032444129,
,,,,,,,,145.25624443199195,20,cars-25.jpg,DO,1,vpnl,2023-11-09_20h12.27.885,midbabyloc,2023.2.2,59.92761032444129,
,,,,,,,,145.7555639709899,20,cars-26.jpg,DO,1,vpnl,2023-11-09_20h12.27.885,midbabyloc,2023.2.2,59.92761032444129,
,,,,,,,,146.25484741399123,20,cars-27.jpg,DO,1,vpnl,2023-11-09_20h12.27.885,midbabyloc,2023.2.2,59.92761032444129,
,,,,,,,,146.75486903698766,20,cars-28.jpg,DO,1,vpnl,2023-11-09_20h12.27.885,midbabyloc,2023.2.2,59.92761032444129,
,,,,,,,,147.25488563299587,20,cars-29.jpg,DO,1,vpnl,2023-11-09_20h12.27.885,midbabyloc,2023.2.2,59.92761032444129,
,,,,,,,,147.75489925900183,20,cars-30.jpg,DO,1,vpnl,2023-11-09_20h12.27.885,midbabyloc,2023.2.2,59.92761032444129,
,,,,,,,,148.25534091900045,20,cars-31.jpg,DO,1,vpnl,2023-11-09_20h12.27.885,midbabyloc,2023.2.2,59.92761032444129,
,,,,,,,,148.75510194800154,20,cars-32.jpg,DO,1,vpnl,2023-11-09_20h12.27.885,midbabyloc,2023.2.2,59.92761032444129,
,,,,,,,,149.2551828489959,21,scenes-25.jpg,DO,1,vpnl,2023-11-09_20h12.27.885,midbabyloc,2023.2.2,59.92761032444129,
,,,,,,,,149.75514131700038,21,scenes-26.jpg,DO,1,vpnl,2023-11-09_20h12.27.885,midbabyloc,2023.2.2,59.92761032444129,
,,,,,,,,150.25881394599855,21,scenes-27.jpg,DO,1,vpnl,2023-11-09_20h12.27.885,midbabyloc,2023.2.2,59.92761032444129,
,,,,,,,,150.75602197099943,21,scenes-28.jpg,DO,1,vpnl,2023-11-09_20h12.27.885,midbabyloc,2023.2.2,59.92761032444129,
,,,,,,,,151.25513743299234,21,scenes-29.jpg,DO,1,vpnl,2023-11-09_20h12.27.885,midbabyloc,2023.2.2,59.92761032444129,
,,,,,,,,151.757836838995,21,scenes-30.jpg,DO,1,vpnl,2023-11-09_20h12.27.885,midbabyloc,2023.2.2,59.92761032444129,
,,,,,,,,152.25647740298882,21,scenes-31.jpg,DO,1,vpnl,2023-11-09_20h12.27.885,midbabyloc,2023.2.2,59.92761032444129,
,,,,,,,,152.75528102199314,21,scenes-32.jpg,DO,1,vpnl,2023-11-09_20h12.27.885,midbabyloc,2023.2.2,59.92761032444129,
,,,,,,,,153.25506138399942,22,cars-33.jpg,DO,1,vpnl,2023-11-09_20h12.27.885,midbabyloc,2023.2.2,59.92761032444129,
,,,,,,,,153.75465423999412,22,cars-34.jpg,DO,1,vpnl,2023-11-09_20h12.27.885,midbabyloc,2023.2.2,59.92761032444129,
,,,,,,,,154.2547096509952,22,cars-35.jpg,DO,1,vpnl,2023-11-09_20h12.27.885,midbabyloc,2023.2.2,59.92761032444129,
,,,,,,,,154.75494259499828,22,cars-36.jpg,DO,1,vpnl,2023-11-09_20h12.27.885,midbabyloc,2023.2.2,59.92761032444129,
,,,,,,,,155.25503351599036,22,cars-37.jpg,DO,1,vpnl,2023-11-09_20h12.27.885,midbabyloc,2023.2.2,59.92761032444129,
,,,,,,,,155.75490873400122,22,cars-38.jpg,DO,1,vpnl,2023-11-09_20h12.27.885,midbabyloc,2023.2.2,59.92761032444129,
,,,,,,,,156.2549213589955,22,cars-39.jpg,DO,1,vpnl,2023-11-09_20h12.27.885,midbabyloc,2023.2.2,59.92761032444129,
,,,,,,,,156.7549138530012,22,cars-40.jpg,DO,1,vpnl,2023-11-09_20h12.27.885,midbabyloc,2023.2.2,59.92761032444129,
,,,,,,,,157.25494744499156,23,hands-33.jpg,DO,1,vpnl,2023-11-09_20h12.27.885,midbabyloc,2023.2.2,59.92761032444129,
,,,,,,,,157.757726936994,23,hands-34.jpg,DO,1,vpnl,2023-11-09_20h12.27.885,midbabyloc,2023.2.2,59.92761032444129,
,,,,,,,,158.2564213549922,23,hands-35.jpg,DO,1,vpnl,2023-11-09_20h12.27.885,midbabyloc,2023.2.2,59.92761032444129,
,,,,,,,,158.75491220298863,23,hands-36.jpg,DO,1,vpnl,2023-11-09_20h12.27.885,midbabyloc,2023.2.2,59.92761032444129,
,,,,,,,,159.25585180199414,23,hands-37.jpg,DO,1,vpnl,2023-11-09_20h12.27.885,midbabyloc,2023.2.2,59.92761032444129,
,,,,,,,,159.75488699298876,23,hands-38.jpg,DO,1,vpnl,2023-11-09_20h12.27.885,midbabyloc,2023.2.2,59.92761032444129,
,,,,,,,,160.2571552659938,23,hands-39.jpg,DO,1,vpnl,2023-11-09_20h12.27.885,midbabyloc,2023.2.2,59.92761032444129,
,,,,,,,,160.7548038239911,23,hands-40.jpg,DO,1,vpnl,2023-11-09_20h12.27.885,midbabyloc,2023.2.2,59.92761032444129,
,,,,,,,,161.25767321798776,24,faces-33.jpg,DO,1,vpnl,2023-11-09_20h12.27.885,midbabyloc,2023.2.2,59.92761032444129,
,,,,,,,,161.75610450199747,24,faces-34.jpg,DO,1,vpnl,2023-11-09_20h12.27.885,midbabyloc,2023.2.2,59.92761032444129,
,,,,,,,,162.25512419900042,24,faces-35.jpg,DO,1,vpnl,2023-11-09_20h12.27.885,midbabyloc,2023.2.2,59.92761032444129,
,,,,,,,,162.75786170299398,24,faces-36.jpg,DO,1,vpnl,2023-11-09_20h12.27.885,midbabyloc,2023.2.2,59.92761032444129,
,,,,,,,,163.2547835019941,24,faces-37.jpg,DO,1,vpnl,2023-11-09_20h12.27.885,midbabyloc,2023.2.2,59.92761032444129,
,,,,,,,,163.75469992599392,24,faces-38.jpg,DO,1,vpnl,2023-11-09_20h12.27.885,midbabyloc,2023.2.2,59.92761032444129,
,,,,,,,,164.25474353200116,24,faces-39.jpg,DO,1,vpnl,2023-11-09_20h12.27.885,midbabyloc,2023.2.2,59.92761032444129,
,,,,,,,,164.75468592900143,24,faces-40.jpg,DO,1,vpnl,2023-11-09_20h12.27.885,midbabyloc,2023.2.2,59.92761032444129,
,,,,,,,,165.25495915699867,25,scenes-33.jpg,DO,1,vpnl,2023-11-09_20h12.27.885,midbabyloc,2023.2.2,59.92761032444129,
,,,,,,,,165.75592626199068,25,scenes-34.jpg,DO,1,vpnl,2023-11-09_20h12.27.885,midbabyloc,2023.2.2,59.92761032444129,
,,,,,,,,166.25849357400148,25,scenes-35.jpg,DO,1,vpnl,2023-11-09_20h12.27.885,midbabyloc,2023.2.2,59.92761032444129,
,,,,,,,,166.75602004300163,25,scenes-36.jpg,DO,1,vpnl,2023-11-09_20h12.27.885,midbabyloc,2023.2.2,59.92761032444129,
,,,,,,,,167.2554708749958,25,scenes-37.jpg,DO,1,vpnl,2023-11-09_20h12.27.885,midbabyloc,2023.2.2,59.92761032444129,
,,,,,,,,167.75490593299037,25,scenes-38.jpg,DO,1,vpnl,2023-11-09_20h12.27.885,midbabyloc,2023.2.2,59.92761032444129,
,,,,,,,,168.25502390800102,25,scenes-39.jpg,DO,1,vpnl,2023-11-09_20h12.27.885,midbabyloc,2023.2.2,59.92761032444129,
,,,,,,,,168.75626851899142,25,scenes-40.jpg,DO,1,vpnl,2023-11-09_20h12.27.885,midbabyloc,2023.2.2,59.92761032444129,
,,,,,,,,169.25474640699395,26,blank-41.jpg,DO,1,vpnl,2023-11-09_20h12.27.885,midbabyloc,2023.2.2,59.92761032444129,
,,,,,,,,169.7546909399971,26,blank-42.jpg,DO,1,vpnl,2023-11-09_20h12.27.885,midbabyloc,2023.2.2,59.92761032444129,
,,,,,,,,170.25461640799767,26,blank-43.jpg,DO,1,vpnl,2023-11-09_20h12.27.885,midbabyloc,2023.2.2,59.92761032444129,
,,,,,,,,170.75470609198965,26,blank-44.jpg,DO,1,vpnl,2023-11-09_20h12.27.885,midbabyloc,2023.2.2,59.92761032444129,
,,,,,,,,171.25477056199452,26,blank-45.jpg,DO,1,vpnl,2023-11-09_20h12.27.885,midbabyloc,2023.2.2,59.92761032444129,
,,,,,,,,171.75471719900088,26,blank-46.jpg,DO,1,vpnl,2023-11-09_20h12.27.885,midbabyloc,2023.2.2,59.92761032444129,
,,,,,,,,172.2547616029915,26,blank-47.jpg,DO,1,vpnl,2023-11-09_20h12.27.885,midbabyloc,2023.2.2,59.92761032444129,
,,,,,,,,172.7546986519883,26,blank-48.jpg,DO,1,vpnl,2023-11-09_20h12.27.885,midbabyloc,2023.2.2,59.92761032444129,
,,,,,,,,173.25478727198788,27,cars-41.jpg,DO,1,vpnl,2023-11-09_20h12.27.885,midbabyloc,2023.2.2,59.92761032444129,
,,,,,,,,173.75478865299374,27,cars-42.jpg,DO,1,vpnl,2023-11-09_20h12.27.885,midbabyloc,2023.2.2,59.92761032444129,
,,,,,,,,174.25479319099395,27,cars-43.jpg,DO,1,vpnl,2023-11-09_20h12.27.885,midbabyloc,2023.2.2,59.92761032444129,
,,,,,,,,174.75479335698765,27,cars-44.jpg,DO,1,vpnl,2023-11-09_20h12.27.885,midbabyloc,2023.2.2,59.92761032444129,
,,,,,,,,175.25478417199338,27,cars-45.jpg,DO,1,vpnl,2023-11-09_20h12.27.885,midbabyloc,2023.2.2,59.92761032444129,
,,,,,,,,175.75482018999173,27,cars-46.jpg,DO,1,vpnl,2023-11-09_20h12.27.885,midbabyloc,2023.2.2,59.92761032444129,
,,,,,,,,176.25473971798783,27,cars-47.jpg,DO,1,vpnl,2023-11-09_20h12.27.885,midbabyloc,2023.2.2,59.92761032444129,
,,,,,,,,176.75456975698762,27,cars-48.jpg,DO,1,vpnl,2023-11-09_20h12.27.885,midbabyloc,2023.2.2,59.92761032444129,
,,,,,,,,177.25465379799425,28,faces-41.jpg,DO,1,vpnl,2023-11-09_20h12.27.885,midbabyloc,2023.2.2,59.92761032444129,
,,,,,,,,177.7546713349875,28,faces-42.jpg,DO,1,vpnl,2023-11-09_20h12.27.885,midbabyloc,2023.2.2,59.92761032444129,
,,,,,,,,178.25473527899885,28,faces-43.jpg,DO,1,vpnl,2023-11-09_20h12.27.885,midbabyloc,2023.2.2,59.92761032444129,
,,,,,,,,178.75455924299604,28,faces-44.jpg,DO,1,vpnl,2023-11-09_20h12.27.885,midbabyloc,2023.2.2,59.92761032444129,
,,,,,,,,179.25451328299823,28,faces-45.jpg,DO,1,vpnl,2023-11-09_20h12.27.885,midbabyloc,2023.2.2,59.92761032444129,
,,,,,,,,179.75455638598942,28,faces-46.jpg,DO,1,vpnl,2023-11-09_20h12.27.885,midbabyloc,2023.2.2,59.92761032444129,
,,,,,,,,180.2545958099945,28,faces-47.jpg,DO,1,vpnl,2023-11-09_20h12.27.885,midbabyloc,2023.2.2,59.92761032444129,
,,,,,,,,180.75446486899455,28,faces-48.jpg,DO,1,vpnl,2023-11-09_20h12.27.885,midbabyloc,2023.2.2,59.92761032444129,
,,,,,,,,181.25454000198806,29,hands-41.jpg,DO,1,vpnl,2023-11-09_20h12.27.885,midbabyloc,2023.2.2,59.92761032444129,
,,,,,,,,181.75446455999918,29,hands-42.jpg,DO,1,vpnl,2023-11-09_20h12.27.885,midbabyloc,2023.2.2,59.92761032444129,
,,,,,,,,182.25453404099972,29,hands-43.jpg,DO,1,vpnl,2023-11-09_20h12.27.885,midbabyloc,2023.2.2,59.92761032444129,
,,,,,,,,182.75455541399424,29,hands-44.jpg,DO,1,vpnl,2023-11-09_20h12.27.885,midbabyloc,2023.2.2,59.92761032444129,
,,,,,,,,183.25450620699849,29,hands-45.jpg,DO,1,vpnl,2023-11-09_20h12.27.885,midbabyloc,2023.2.2,59.92761032444129,
,,,,,,,,183.7542786539998,29,hands-46.jpg,DO,1,vpnl,2023-11-09_20h12.27.885,midbabyloc,2023.2.2,59.92761032444129,
,,,,,,,,184.2544732440001,29,hands-47.jpg,DO,1,vpnl,2023-11-09_20h12.27.885,midbabyloc,2023.2.2,59.92761032444129,
,,,,,,,,184.75447715898918,29,hands-48.jpg,DO,1,vpnl,2023-11-09_20h12.27.885,midbabyloc,2023.2.2,59.92761032444129,
,,,,,,,,185.25440060699475,30,scenes-41.jpg,DO,1,vpnl,2023-11-09_20h12.27.885,midbabyloc,2023.2.2,59.92761032444129,
,,,,,,,,185.75443748099497,30,scenes-42.jpg,DO,1,vpnl,2023-11-09_20h12.27.885,midbabyloc,2023.2.2,59.92761032444129,
,,,,,,,,186.25449862299138,30,scenes-43.jpg,DO,1,vpnl,2023-11-09_20h12.27.885,midbabyloc,2023.2.2,59.92761032444129,
,,,,,,,,186.75429898999573,30,scenes-44.jpg,DO,1,vpnl,2023-11-09_20h12.27.885,midbabyloc,2023.2.2,59.92761032444129,
,,,,,,,,187.25442279900017,30,scenes-45.jpg,DO,1,vpnl,2023-11-09_20h12.27.885,midbabyloc,2023.2.2,59.92761032444129,
,,,,,,,,187.75462061999133,30,scenes-46.jpg,DO,1,vpnl,2023-11-09_20h12.27.885,midbabyloc,2023.2.2,59.92761032444129,
,,,,,,,,188.25459829600004,30,scenes-47.jpg,DO,1,vpnl,2023-11-09_20h12.27.885,midbabyloc,2023.2.2,59.92761032444129,
,,,,,,,,188.75450441199064,30,scenes-48.jpg,DO,1,vpnl,2023-11-09_20h12.27.885,midbabyloc,2023.2.2,59.92761032444129,
,,,,,,,,189.25459296099143,31,blank-49.jpg,DO,1,vpnl,2023-11-09_20h12.27.885,midbabyloc,2023.2.2,59.92761032444129,
,,,,,,,,189.75443786098913,31,blank-50.jpg,DO,1,vpnl,2023-11-09_20h12.27.885,midbabyloc,2023.2.2,59.92761032444129,
,,,,,,,,190.2544117869984,31,blank-51.jpg,DO,1,vpnl,2023-11-09_20h12.27.885,midbabyloc,2023.2.2,59.92761032444129,
,,,,,,,,190.7543740120018,31,blank-52.jpg,DO,1,vpnl,2023-11-09_20h12.27.885,midbabyloc,2023.2.2,59.92761032444129,
,,,,,,,,191.25439571299648,31,blank-53.jpg,DO,1,vpnl,2023-11-09_20h12.27.885,midbabyloc,2023.2.2,59.92761032444129,
,,,,,,,,191.75434285899973,31,blank-54.jpg,DO,1,vpnl,2023-11-09_20h12.27.885,midbabyloc,2023.2.2,59.92761032444129,
,,,,,,,,192.25441172899446,31,blank-55.jpg,DO,1,vpnl,2023-11-09_20h12.27.885,midbabyloc,2023.2.2,59.92761032444129,
,,,,,,,,192.75439896598982,31,blank-56.jpg,DO,1,vpnl,2023-11-09_20h12.27.885,midbabyloc,2023.2.2,59.92761032444129,
,,,,,,,,193.25445043700165,32,scenes-49.jpg,DO,1,vpnl,2023-11-09_20h12.27.885,midbabyloc,2023.2.2,59.92761032444129,
,,,,,,,,193.75433575198986,32,scenes-50.jpg,DO,1,vpnl,2023-11-09_20h12.27.885,midbabyloc,2023.2.2,59.92761032444129,
,,,,,,,,194.25422811799217,32,scenes-51.jpg,DO,1,vpnl,2023-11-09_20h12.27.885,midbabyloc,2023.2.2,59.92761032444129,
,,,,,,,,194.75431732799916,32,scenes-52.jpg,DO,1,vpnl,2023-11-09_20h12.27.885,midbabyloc,2023.2.2,59.92761032444129,
,,,,,,,,195.25433656098903,32,scenes-53.jpg,DO,1,vpnl,2023-11-09_20h12.27.885,midbabyloc,2023.2.2,59.92761032444129,
,,,,,,,,195.75439179199748,32,scenes-54.jpg,DO,1,vpnl,2023-11-09_20h12.27.885,midbabyloc,2023.2.2,59.92761032444129,
,,,,,,,,196.2543525259971,32,scenes-55.jpg,DO,1,vpnl,2023-11-09_20h12.27.885,midbabyloc,2023.2.2,59.92761032444129,
,,,,,,,,196.75804649299243,32,scenes-56.jpg,DO,1,vpnl,2023-11-09_20h12.27.885,midbabyloc,2023.2.2,59.92761032444129,
,,,,,,,,197.254313464,33,cars-49.jpg,DO,1,vpnl,2023-11-09_20h12.27.885,midbabyloc,2023.2.2,59.92761032444129,
,,,,,,,,197.75418297298893,33,cars-50.jpg,DO,1,vpnl,2023-11-09_20h12.27.885,midbabyloc,2023.2.2,59.92761032444129,
,,,,,,,,198.25435751899204,33,cars-51.jpg,DO,1,vpnl,2023-11-09_20h12.27.885,midbabyloc,2023.2.2,59.92761032444129,
,,,,,,,,198.75411266100127,33,cars-52.jpg,DO,1,vpnl,2023-11-09_20h12.27.885,midbabyloc,2023.2.2,59.92761032444129,
,,,,,,,,199.25415595299273,33,cars-53.jpg,DO,1,vpnl,2023-11-09_20h12.27.885,midbabyloc,2023.2.2,59.92761032444129,
,,,,,,,,199.75406043199473,33,cars-54.jpg,DO,1,vpnl,2023-11-09_20h12.27.885,midbabyloc,2023.2.2,59.92761032444129,
,,,,,,,,200.25426383999002,33,cars-55.jpg,DO,1,vpnl,2023-11-09_20h12.27.885,midbabyloc,2023.2.2,59.92761032444129,
,,,,,,,,200.7543889709923,33,cars-56.jpg,DO,1,vpnl,2023-11-09_20h12.27.885,midbabyloc,2023.2.2,59.92761032444129,
,,,,,,,,201.25434011800098,34,blank-57.jpg,DO,1,vpnl,2023-11-09_20h12.27.885,midbabyloc,2023.2.2,59.92761032444129,
,,,,,,,,201.75421364299837,34,blank-58.jpg,DO,1,vpnl,2023-11-09_20h12.27.885,midbabyloc,2023.2.2,59.92761032444129,
,,,,,,,,202.25421397898754,34,blank-59.jpg,DO,1,vpnl,2023-11-09_20h12.27.885,midbabyloc,2023.2.2,59.92761032444129,
,,,,,,,,202.754197887989,34,blank-60.jpg,DO,1,vpnl,2023-11-09_20h12.27.885,midbabyloc,2023.2.2,59.92761032444129,
,,,,,,,,203.25424271498923,34,blank-61.jpg,DO,1,vpnl,2023-11-09_20h12.27.885,midbabyloc,2023.2.2,59.92761032444129,
,,,,,,,,203.75409553899954,34,blank-62.jpg,DO,1,vpnl,2023-11-09_20h12.27.885,midbabyloc,2023.2.2,59.92761032444129,
,,,,,,,,204.25419885199517,34,blank-63.jpg,DO,1,vpnl,2023-11-09_20h12.27.885,midbabyloc,2023.2.2,59.92761032444129,
,,,,,,,,204.75423110199335,34,blank-64.jpg,DO,1,vpnl,2023-11-09_20h12.27.885,midbabyloc,2023.2.2,59.92761032444129,
,,,,,,,,205.2576868939941,35,hands-49.jpg,DO,1,vpnl,2023-11-09_20h12.27.885,midbabyloc,2023.2.2,59.92761032444129,
,,,,,,,,205.75408393399266,35,hands-50.jpg,DO,1,vpnl,2023-11-09_20h12.27.885,midbabyloc,2023.2.2,59.92761032444129,
,,,,,,,,206.2540646129928,35,hands-51.jpg,DO,1,vpnl,2023-11-09_20h12.27.885,midbabyloc,2023.2.2,59.92761032444129,
,,,,,,,,206.75409224299074,35,hands-52.jpg,DO,1,vpnl,2023-11-09_20h12.27.885,midbabyloc,2023.2.2,59.92761032444129,
,,,,,,,,207.2541600229888,35,hands-53.jpg,DO,1,vpnl,2023-11-09_20h12.27.885,midbabyloc,2023.2.2,59.92761032444129,
,,,,,,,,207.75415402300132,35,hands-54.jpg,DO,1,vpnl,2023-11-09_20h12.27.885,midbabyloc,2023.2.2,59.92761032444129,
,,,,,,,,208.25426291499753,35,hands-55.jpg,DO,1,vpnl,2023-11-09_20h12.27.885,midbabyloc,2023.2.2,59.92761032444129,
,,,,,,,,208.75435827199544,35,hands-56.jpg,DO,1,vpnl,2023-11-09_20h12.27.885,midbabyloc,2023.2.2,59.92761032444129,
,,,,,,,,209.25403565099987,36,faces-49.jpg,DO,1,vpnl,2023-11-09_20h12.27.885,midbabyloc,2023.2.2,59.92761032444129,
,,,,,,,,209.75404742298997,36,faces-50.jpg,DO,1,vpnl,2023-11-09_20h12.27.885,midbabyloc,2023.2.2,59.92761032444129,
,,,,,,,,210.25400877499487,36,faces-51.jpg,DO,1,vpnl,2023-11-09_20h12.27.885,midbabyloc,2023.2.2,59.92761032444129,
,,,,,,,,210.75407715399342,36,faces-52.jpg,DO,1,vpnl,2023-11-09_20h12.27.885,midbabyloc,2023.2.2,59.92761032444129,
,,,,,,,,211.25667479800177,36,faces-53.jpg,DO,1,vpnl,2023-11-09_20h12.27.885,midbabyloc,2023.2.2,59.92761032444129,
,,,,,,,,211.75424309899972,36,faces-54.jpg,DO,1,vpnl,2023-11-09_20h12.27.885,midbabyloc,2023.2.2,59.92761032444129,
,,,,,,,,212.25400377599,36,faces-55.jpg,DO,1,vpnl,2023-11-09_20h12.27.885,midbabyloc,2023.2.2,59.92761032444129,
,,,,,,,,212.75404485099716,36,faces-56.jpg,DO,1,vpnl,2023-11-09_20h12.27.885,midbabyloc,2023.2.2,59.92761032444129,
,,,,,,,,213.25397123699076,37,cars-57.jpg,DO,1,vpnl,2023-11-09_20h12.27.885,midbabyloc,2023.2.2,59.92761032444129,
,,,,,,,,213.75422745000105,37,cars-58.jpg,DO,1,vpnl,2023-11-09_20h12.27.885,midbabyloc,2023.2.2,59.92761032444129,
,,,,,,,,214.25427193498763,37,cars-59.jpg,DO,1,vpnl,2023-11-09_20h12.27.885,midbabyloc,2023.2.2,59.92761032444129,
,,,,,,,,214.7541159419925,37,cars-60.jpg,DO,1,vpnl,2023-11-09_20h12.27.885,midbabyloc,2023.2.2,59.92761032444129,
,,,,,,,,215.25412620599673,37,cars-61.jpg,DO,1,vpnl,2023-11-09_20h12.27.885,midbabyloc,2023.2.2,59.92761032444129,
,,,,,,,,215.75414916899172,37,cars-62.jpg,DO,1,vpnl,2023-11-09_20h12.27.885,midbabyloc,2023.2.2,59.92761032444129,
,,,,,,,,216.25426072700066,37,cars-63.jpg,DO,1,vpnl,2023-11-09_20h12.27.885,midbabyloc,2023.2.2,59.92761032444129,
,,,,,,,,216.75636390098953,37,cars-64.jpg,DO,1,vpnl,2023-11-09_20h12.27.885,midbabyloc,2023.2.2,59.92761032444129,
,,,,,,,,217.2541829929978,38,blank-65.jpg,DO,1,vpnl,2023-11-09_20h12.27.885,midbabyloc,2023.2.2,59.92761032444129,
,,,,,,,,217.754500954994,38,blank-66.jpg,DO,1,vpnl,2023-11-09_20h12.27.885,midbabyloc,2023.2.2,59.92761032444129,
,,,,,,,,218.25406159299018,38,blank-67.jpg,DO,1,vpnl,2023-11-09_20h12.27.885,midbabyloc,2023.2.2,59.92761032444129,
,,,,,,,,218.75414711299527,38,blank-68.jpg,DO,1,vpnl,2023-11-09_20h12.27.885,midbabyloc,2023.2.2,59.92761032444129,
,,,,,,,,219.2539722819929,38,blank-69.jpg,DO,1,vpnl,2023-11-09_20h12.27.885,midbabyloc,2023.2.2,59.92761032444129,
,,,,,,,,219.7540149659908,38,blank-70.jpg,DO,1,vpnl,2023-11-09_20h12.27.885,midbabyloc,2023.2.2,59.92761032444129,
,,,,,,,,220.25400916699436,38,blank-71.jpg,DO,1,vpnl,2023-11-09_20h12.27.885,midbabyloc,2023.2.2,59.92761032444129,
,,,,,,,,220.75403234999976,38,blank-72.jpg,DO,1,vpnl,2023-11-09_20h12.27.885,midbabyloc,2023.2.2,59.92761032444129,
,,,,,,,,221.2540022710018,39,hands-57.jpg,DO,1,vpnl,2023-11-09_20h12.27.885,midbabyloc,2023.2.2,59.92761032444129,
,,,,,,,,221.75384454899176,39,hands-58.jpg,DO,1,vpnl,2023-11-09_20h12.27.885,midbabyloc,2023.2.2,59.92761032444129,
,,,,,,,,222.25417273899075,39,hands-59.jpg,DO,1,vpnl,2023-11-09_20h12.27.885,midbabyloc,2023.2.2,59.92761032444129,
,,,,,,,,222.75413770398882,39,hands-60.jpg,DO,1,vpnl,2023-11-09_20h12.27.885,midbabyloc,2023.2.2,59.92761032444129,
,,,,,,,,223.2541585709987,39,hands-61.jpg,DO,1,vpnl,2023-11-09_20h12.27.885,midbabyloc,2023.2.2,59.92761032444129,
,,,,,,,,223.75386532698758,39,hands-62.jpg,DO,1,vpnl,2023-11-09_20h12.27.885,midbabyloc,2023.2.2,59.92761032444129,
,,,,,,,,224.2539209940005,39,hands-63.jpg,DO,1,vpnl,2023-11-09_20h12.27.885,midbabyloc,2023.2.2,59.92761032444129,
,,,,,,,,224.75387330399826,39,hands-64.jpg,DO,1,vpnl,2023-11-09_20h12.27.885,midbabyloc,2023.2.2,59.92761032444129,
,,,,,,,,225.25390305799374,40,scenes-57.jpg,DO,1,vpnl,2023-11-09_20h12.27.885,midbabyloc,2023.2.2,59.92761032444129,
,,,,,,,,225.75380666500132,40,scenes-58.jpg,DO,1,vpnl,2023-11-09_20h12.27.885,midbabyloc,2023.2.2,59.92761032444129,
,,,,,,,,226.25377848900098,40,scenes-59.jpg,DO,1,vpnl,2023-11-09_20h12.27.885,midbabyloc,2023.2.2,59.92761032444129,
,,,,,,,,226.75397866898857,40,scenes-60.jpg,DO,1,vpnl,2023-11-09_20h12.27.885,midbabyloc,2023.2.2,59.92761032444129,
,,,,,,,,227.25384172999475,40,scenes-61.jpg,DO,1,vpnl,2023-11-09_20h12.27.885,midbabyloc,2023.2.2,59.92761032444129,
,,,,,,,,227.75401957699796,40,scenes-62.jpg,DO,1,vpnl,2023-11-09_20h12.27.885,midbabyloc,2023.2.2,59.92761032444129,
,,,,,,,,228.2538791219995,40,scenes-63.jpg,DO,1,vpnl,2023-11-09_20h12.27.885,midbabyloc,2023.2.2,59.92761032444129,
,,,,,,,,228.7535252509988,40,scenes-64.jpg,DO,1,vpnl,2023-11-09_20h12.27.885,midbabyloc,2023.2.2,59.92761032444129,
,,,,,,,,229.2537050079991,41,faces-57.jpg,DO,1,vpnl,2023-11-09_20h12.27.885,midbabyloc,2023.2.2,59.92761032444129,
,,,,,,,,229.75361048999184,41,faces-58.jpg,DO,1,vpnl,2023-11-09_20h12.27.885,midbabyloc,2023.2.2,59.92761032444129,
,,,,,,,,230.25371091099805,41,faces-59.jpg,DO,1,vpnl,2023-11-09_20h12.27.885,midbabyloc,2023.2.2,59.92761032444129,
,,,,,,,,230.753562176993,41,faces-60.jpg,DO,1,vpnl,2023-11-09_20h12.27.885,midbabyloc,2023.2.2,59.92761032444129,
,,,,,,,,231.2537115939922,41,faces-61.jpg,DO,1,vpnl,2023-11-09_20h12.27.885,midbabyloc,2023.2.2,59.92761032444129,
,,,,,,,,231.7536526779877,41,faces-62.jpg,DO,1,vpnl,2023-11-09_20h12.27.885,midbabyloc,2023.2.2,59.92761032444129,
,,,,,,,,232.2534686709987,41,faces-63.jpg,DO,1,vpnl,2023-11-09_20h12.27.885,midbabyloc,2023.2.2,59.92761032444129,
,,,,,,,,232.75360895699123,41,faces-64.jpg,DO,1,vpnl,2023-11-09_20h12.27.885,midbabyloc,2023.2.2,59.92761032444129,
,,,,,,,,233.25361794199853,42,blank-73.jpg,DO,1,vpnl,2023-11-09_20h12.27.885,midbabyloc,2023.2.2,59.92761032444129,
,,,,,,,,233.7537957799941,42,blank-74.jpg,DO,1,vpnl,2023-11-09_20h12.27.885,midbabyloc,2023.2.2,59.92761032444129,
,,,,,,,,234.25346338399686,42,blank-75.jpg,DO,1,vpnl,2023-11-09_20h12.27.885,midbabyloc,2023.2.2,59.92761032444129,
,,,,,,,,234.75347410599352,42,blank-76.jpg,DO,1,vpnl,2023-11-09_20h12.27.885,midbabyloc,2023.2.2,59.92761032444129,
,,,,,,,,235.25361410000187,42,blank-77.jpg,DO,1,vpnl,2023-11-09_20h12.27.885,midbabyloc,2023.2.2,59.92761032444129,
,,,,,,,,235.75342589199136,42,blank-78.jpg,DO,1,vpnl,2023-11-09_20h12.27.885,midbabyloc,2023.2.2,59.92761032444129,
,,,,,,,,236.2534674609924,42,blank-79.jpg,DO,1,vpnl,2023-11-09_20h12.27.885,midbabyloc,2023.2.2,59.92761032444129,
,,,,,,,,236.75361690598947,42,blank-80.jpg,DO,1,vpnl,2023-11-09_20h12.27.885,midbabyloc,2023.2.2,59.92761032444129,
