thisRow.t,notes,waiting_for_trigger_text.started,trigger.started,trigger.keys,trigger.rt,countdown.started,countdown.stopped,trial.stopped,stimuli.started,condition,stim_name,stimuli.stopped,participant,run,user,date,expName,psychopyVersion,frameRate,
,,263.796297362991,263.796297362991,t,54.37880289500754,,,,,,,,DO,1,vpnl,2023-11-09_20h12.27.885,midbabyloc,2023.2.2,59.92761032444129,
,,,,,,318.2042918179941,324.20417581198853,60.40432511999097,324.20417581198853,1,blank-65.jpg,324.70394758399925,DO,1,vpnl,2023-11-09_20h12.27.885,midbabyloc,2023.2.2,59.92761032444129,
,,,,,,,,,324.70394758399925,1,blank-66.jpg,325.20501704099297,DO,1,vpnl,2023-11-09_20h12.27.885,midbabyloc,2023.2.2,59.92761032444129,
,,,,,,,,,325.20501704099297,1,blank-67.jpg,,DO,1,vpnl,2023-11-09_20h12.27.885,midbabyloc,2023.2.2,59.92761032444129,
,,,,,,,,,325.7183840249927,1,blank-68.jpg,,DO,1,vpnl,2023-11-09_20h12.27.885,midbabyloc,2023.2.2,59.92761032444129,
,,,,,,,,,326.2183967710007,1,blank-69.jpg,,DO,1,vpnl,2023-11-09_20h12.27.885,midbabyloc,2023.2.2,59.92761032444129,
,,,,,,,,,326.71831039499375,1,blank-70.jpg,,DO,1,vpnl,2023-11-09_20h12.27.885,midbabyloc,2023.2.2,59.92761032444129,
,,,,,,,,,327.2183625949983,1,blank-71.jpg,,DO,1,vpnl,2023-11-09_20h12.27.885,midbabyloc,2023.2.2,59.92761032444129,
,,,,,,,,,327.71828046199516,1,blank-72.jpg,,DO,1,vpnl,2023-11-09_20h12.27.885,midbabyloc,2023.2.2,59.92761032444129,
,,,,,,,,,328.21838231998845,2,hands-65.jpg,,DO,1,vpnl,2023-11-09_20h12.27.885,midbabyloc,2023.2.2,59.92761032444129,
,,,,,,,,,328.71835238998756,2,hands-66.jpg,,DO,1,vpnl,2023-11-09_20h12.27.885,midbabyloc,2023.2.2,59.92761032444129,
,,,,,,,,,329.2182556799962,2,hands-67.jpg,,DO,1,vpnl,2023-11-09_20h12.27.885,midbabyloc,2023.2.2,59.92761032444129,
,,,,,,,,,329.7183574090013,2,hands-68.jpg,,DO,1,vpnl,2023-11-09_20h12.27.885,midbabyloc,2023.2.2,59.92761032444129,
,,,,,,,,,330.2182396499993,2,hands-69.jpg,,DO,1,vpnl,2023-11-09_20h12.27.885,midbabyloc,2023.2.2,59.92761032444129,
,,,,,,,,,330.7182496890018,2,hands-70.jpg,,DO,1,vpnl,2023-11-09_20h12.27.885,midbabyloc,2023.2.2,59.92761032444129,
,,,,,,,,,331.2182733399968,2,hands-71.jpg,,DO,1,vpnl,2023-11-09_20h12.27.885,midbabyloc,2023.2.2,59.92761032444129,
,,,,,,,,,331.71830213700014,2,hands-72.jpg,,DO,1,vpnl,2023-11-09_20h12.27.885,midbabyloc,2023.2.2,59.92761032444129,
,,,,,,,,,332.2182885489892,3,faces-65.jpg,,DO,1,vpnl,2023-11-09_20h12.27.885,midbabyloc,2023.2.2,59.92761032444129,
,,,,,,,,,332.7191565319954,3,faces-66.jpg,,DO,1,vpnl,2023-11-09_20h12.27.885,midbabyloc,2023.2.2,59.92761032444129,
,,,,,,,,,333.2182494259905,3,faces-67.jpg,,DO,1,vpnl,2023-11-09_20h12.27.885,midbabyloc,2023.2.2,59.92761032444129,
,,,,,,,,,333.71823707799194,3,faces-68.jpg,,DO,1,vpnl,2023-11-09_20h12.27.885,midbabyloc,2023.2.2,59.92761032444129,
,,,,,,,,,334.2181560129975,3,faces-69.jpg,,DO,1,vpnl,2023-11-09_20h12.27.885,midbabyloc,2023.2.2,59.92761032444129,
,,,,,,,,,334.7181610569969,3,faces-70.jpg,,DO,1,vpnl,2023-11-09_20h12.27.885,midbabyloc,2023.2.2,59.92761032444129,
,,,,,,,,,335.21822833799524,3,faces-71.jpg,,DO,1,vpnl,2023-11-09_20h12.27.885,midbabyloc,2023.2.2,59.92761032444129,
,,,,,,,,,335.7182299059932,3,faces-72.jpg,,DO,1,vpnl,2023-11-09_20h12.27.885,midbabyloc,2023.2.2,59.92761032444129,
,,,,,,,,,336.2181285659899,4,scenes-65.jpg,,DO,1,vpnl,2023-11-09_20h12.27.885,midbabyloc,2023.2.2,59.92761032444129,
,,,,,,,,,336.7181250239955,4,scenes-66.jpg,,DO,1,vpnl,2023-11-09_20h12.27.885,midbabyloc,2023.2.2,59.92761032444129,
,,,,,,,,,337.2181810309994,4,scenes-67.jpg,,DO,1,vpnl,2023-11-09_20h12.27.885,midbabyloc,2023.2.2,59.92761032444129,
,,,,,,,,,337.7182597279898,4,scenes-68.jpg,,DO,1,vpnl,2023-11-09_20h12.27.885,midbabyloc,2023.2.2,59.92761032444129,
,,,,,,,,,338.2181008149928,4,scenes-69.jpg,,DO,1,vpnl,2023-11-09_20h12.27.885,midbabyloc,2023.2.2,59.92761032444129,
,,,,,,,,,338.71817090599507,4,scenes-70.jpg,,DO,1,vpnl,2023-11-09_20h12.27.885,midbabyloc,2023.2.2,59.92761032444129,
,,,,,,,,,339.2181612689892,4,scenes-71.jpg,,DO,1,vpnl,2023-11-09_20h12.27.885,midbabyloc,2023.2.2,59.92761032444129,
,,,,,,,,,339.7180862779933,4,scenes-72.jpg,,DO,1,vpnl,2023-11-09_20h12.27.885,midbabyloc,2023.2.2,59.92761032444129,
,,,,,,,,,340.21977546298876,5,cars-65.jpg,,DO,1,vpnl,2023-11-09_20h12.27.885,midbabyloc,2023.2.2,59.92761032444129,
,,,,,,,,,340.71811658098886,5,cars-66.jpg,,DO,1,vpnl,2023-11-09_20h12.27.885,midbabyloc,2023.2.2,59.92761032444129,
,,,,,,,,,341.21810394099157,5,cars-67.jpg,,DO,1,vpnl,2023-11-09_20h12.27.885,midbabyloc,2023.2.2,59.92761032444129,
,,,,,,,,,341.7180887949944,5,cars-68.jpg,,DO,1,vpnl,2023-11-09_20h12.27.885,midbabyloc,2023.2.2,59.92761032444129,
,,,,,,,,,342.21806503098924,5,cars-69.jpg,,DO,1,vpnl,2023-11-09_20h12.27.885,midbabyloc,2023.2.2,59.92761032444129,
,,,,,,,,,342.71882550799637,5,cars-70.jpg,,DO,1,vpnl,2023-11-09_20h12.27.885,midbabyloc,2023.2.2,59.92761032444129,
,,,,,,,,,343.21806915100024,5,cars-71.jpg,,DO,1,vpnl,2023-11-09_20h12.27.885,midbabyloc,2023.2.2,59.92761032444129,
,,,,,,,,,343.71808901199256,5,cars-72.jpg,,DO,1,vpnl,2023-11-09_20h12.27.885,midbabyloc,2023.2.2,59.92761032444129,
,,,,,,,,,344.2179855639988,6,blank-73.jpg,,DO,1,vpnl,2023-11-09_20h12.27.885,midbabyloc,2023.2.2,59.92761032444129,
,,,,,,,,,344.7178785469878,6,blank-74.jpg,,DO,1,vpnl,2023-11-09_20h12.27.885,midbabyloc,2023.2.2,59.92761032444129,
,,,,,,,,,345.2179634810018,6,blank-75.jpg,,DO,1,vpnl,2023-11-09_20h12.27.885,midbabyloc,2023.2.2,59.92761032444129,
,,,,,,,,,345.7179898839968,6,blank-76.jpg,,DO,1,vpnl,2023-11-09_20h12.27.885,midbabyloc,2023.2.2,59.92761032444129,
,,,,,,,,,346.21795475399995,6,blank-77.jpg,,DO,1,vpnl,2023-11-09_20h12.27.885,midbabyloc,2023.2.2,59.92761032444129,
,,,,,,,,,346.7179750369978,6,blank-78.jpg,,DO,1,vpnl,2023-11-09_20h12.27.885,midbabyloc,2023.2.2,59.92761032444129,
,,,,,,,,,347.2181648609985,6,blank-79.jpg,,DO,1,vpnl,2023-11-09_20h12.27.885,midbabyloc,2023.2.2,59.92761032444129,
,,,,,,,,,347.7179062919895,6,blank-80.jpg,,DO,1,vpnl,2023-11-09_20h12.27.885,midbabyloc,2023.2.2,59.92761032444129,
,,,,,,,,,348.21790152699396,7,scenes-73.jpg,,DO,1,vpnl,2023-11-09_20h12.27.885,midbabyloc,2023.2.2,59.92761032444129,
,,,,,,,,,348.717946646997,7,scenes-74.jpg,,DO,1,vpnl,2023-11-09_20h12.27.885,midbabyloc,2023.2.2,59.92761032444129,
,,,,,,,,,349.21792308699514,7,scenes-75.jpg,,DO,1,vpnl,2023-11-09_20h12.27.885,midbabyloc,2023.2.2,59.92761032444129,
,,,,,,,,,349.7178852099896,7,scenes-76.jpg,,DO,1,vpnl,2023-11-09_20h12.27.885,midbabyloc,2023.2.2,59.92761032444129,
,,,,,,,,,350.21794030599995,7,scenes-77.jpg,,DO,1,vpnl,2023-11-09_20h12.27.885,midbabyloc,2023.2.2,59.92761032444129,
,,,,,,,,,350.7179654539941,7,scenes-78.jpg,,DO,1,vpnl,2023-11-09_20h12.27.885,midbabyloc,2023.2.2,59.92761032444129,
,,,,,,,,,351.21781718399143,7,scenes-79.jpg,,DO,1,vpnl,2023-11-09_20h12.27.885,midbabyloc,2023.2.2,59.92761032444129,
,,,,,,,,,351.71780885299086,7,scenes-80.jpg,,DO,1,vpnl,2023-11-09_20h12.27.885,midbabyloc,2023.2.2,59.92761032444129,
,,,,,,,,,352.2178193689906,8,faces-73.jpg,,DO,1,vpnl,2023-11-09_20h12.27.885,midbabyloc,2023.2.2,59.92761032444129,
,,,,,,,,,352.71786423499,8,faces-74.jpg,,DO,1,vpnl,2023-11-09_20h12.27.885,midbabyloc,2023.2.2,59.92761032444129,
,,,,,,,,,353.2178045030014,8,faces-75.jpg,,DO,1,vpnl,2023-11-09_20h12.27.885,midbabyloc,2023.2.2,59.92761032444129,
,,,,,,,,,353.7185717620014,8,faces-76.jpg,,DO,1,vpnl,2023-11-09_20h12.27.885,midbabyloc,2023.2.2,59.92761032444129,
,,,,,,,,,354.2177881819953,8,faces-77.jpg,,DO,1,vpnl,2023-11-09_20h12.27.885,midbabyloc,2023.2.2,59.92761032444129,
,,,,,,,,,354.7177786319953,8,faces-78.jpg,,DO,1,vpnl,2023-11-09_20h12.27.885,midbabyloc,2023.2.2,59.92761032444129,
,,,,,,,,,355.21839169399755,8,faces-79.jpg,,DO,1,vpnl,2023-11-09_20h12.27.885,midbabyloc,2023.2.2,59.92761032444129,
,,,,,,,,,355.7175949669909,8,faces-80.jpg,,DO,1,vpnl,2023-11-09_20h12.27.885,midbabyloc,2023.2.2,59.92761032444129,
,,,,,,,,,356.2178330799943,9,blank-81.jpg,,DO,1,vpnl,2023-11-09_20h12.27.885,midbabyloc,2023.2.2,59.92761032444129,
,,,,,,,,,356.71891313800006,9,blank-82.jpg,,DO,1,vpnl,2023-11-09_20h12.27.885,midbabyloc,2023.2.2,59.92761032444129,
,,,,,,,,,357.21781683299923,9,blank-83.jpg,,DO,1,vpnl,2023-11-09_20h12.27.885,midbabyloc,2023.2.2,59.92761032444129,
,,,,,,,,,357.7179408660013,9,blank-84.jpg,,DO,1,vpnl,2023-11-09_20h12.27.885,midbabyloc,2023.2.2,59.92761032444129,
,,,,,,,,,358.21778888598783,9,blank-85.jpg,,DO,1,vpnl,2023-11-09_20h12.27.885,midbabyloc,2023.2.2,59.92761032444129,
,,,,,,,,,358.7177909739985,9,blank-86.jpg,,DO,1,vpnl,2023-11-09_20h12.27.885,midbabyloc,2023.2.2,59.92761032444129,
,,,,,,,,,359.2178640409984,9,blank-87.jpg,,DO,1,vpnl,2023-11-09_20h12.27.885,midbabyloc,2023.2.2,59.92761032444129,
,,,,,,,,,359.7180147009931,9,blank-88.jpg,,DO,1,vpnl,2023-11-09_20h12.27.885,midbabyloc,2023.2.2,59.92761032444129,
,,,,,,,,,360.21765033299744,10,cars-73.jpg,,DO,1,vpnl,2023-11-09_20h12.27.885,midbabyloc,2023.2.2,59.92761032444129,
,,,,,,,,,360.71780267400027,10,cars-74.jpg,,DO,1,vpnl,2023-11-09_20h12.27.885,midbabyloc,2023.2.2,59.92761032444129,
,,,,,,,,,361.21767393698974,10,cars-75.jpg,,DO,1,vpnl,2023-11-09_20h12.27.885,midbabyloc,2023.2.2,59.92761032444129,
,,,,,,,,,361.71789067400096,10,cars-76.jpg,,DO,1,vpnl,2023-11-09_20h12.27.885,midbabyloc,2023.2.2,59.92761032444129,
,,,,,,,,,362.2176956100011,10,cars-77.jpg,,DO,1,vpnl,2023-11-09_20h12.27.885,midbabyloc,2023.2.2,59.92761032444129,
,,,,,,,,,362.7177523759892,10,cars-78.jpg,,DO,1,vpnl,2023-11-09_20h12.27.885,midbabyloc,2023.2.2,59.92761032444129,
,,,,,,,,,363.21764136699494,10,cars-79.jpg,,DO,1,vpnl,2023-11-09_20h12.27.885,midbabyloc,2023.2.2,59.92761032444129,
,,,,,,,,,363.72004431599635,10,cars-80.jpg,,DO,1,vpnl,2023-11-09_20h12.27.885,midbabyloc,2023.2.2,59.92761032444129,
,,,,,,,,,364.2176280489948,11,hands-73.jpg,,DO,1,vpnl,2023-11-09_20h12.27.885,midbabyloc,2023.2.2,59.92761032444129,
,,,,,,,,,364.7175900979928,11,hands-74.jpg,,DO,1,vpnl,2023-11-09_20h12.27.885,midbabyloc,2023.2.2,59.92761032444129,
,,,,,,,,,365.21759811099037,11,hands-75.jpg,,DO,1,vpnl,2023-11-09_20h12.27.885,midbabyloc,2023.2.2,59.92761032444129,
,,,,,,,,,365.71762840000156,11,hands-76.jpg,,DO,1,vpnl,2023-11-09_20h12.27.885,midbabyloc,2023.2.2,59.92761032444129,
,,,,,,,,,366.21769271699304,11,hands-77.jpg,,DO,1,vpnl,2023-11-09_20h12.27.885,midbabyloc,2023.2.2,59.92761032444129,
,,,,,,,,,366.7176594069897,11,hands-78.jpg,,DO,1,vpnl,2023-11-09_20h12.27.885,midbabyloc,2023.2.2,59.92761032444129,
,,,,,,,,,367.2176187360019,11,hands-79.jpg,,DO,1,vpnl,2023-11-09_20h12.27.885,midbabyloc,2023.2.2,59.92761032444129,
,,,,,,,,,367.71761794100166,11,hands-80.jpg,,DO,1,vpnl,2023-11-09_20h12.27.885,midbabyloc,2023.2.2,59.92761032444129,
,,,,,,,,,368.21767128699867,12,blank-89.jpg,,DO,1,vpnl,2023-11-09_20h12.27.885,midbabyloc,2023.2.2,59.92761032444129,
,,,,,,,,,368.7177116309904,12,blank-90.jpg,,DO,1,vpnl,2023-11-09_20h12.27.885,midbabyloc,2023.2.2,59.92761032444129,
,,,,,,,,,369.2197350959905,12,blank-91.jpg,,DO,1,vpnl,2023-11-09_20h12.27.885,midbabyloc,2023.2.2,59.92761032444129,
,,,,,,,,,369.71757469599834,12,blank-92.jpg,,DO,1,vpnl,2023-11-09_20h12.27.885,midbabyloc,2023.2.2,59.92761032444129,
,,,,,,,,,370.2174822539964,12,blank-93.jpg,,DO,1,vpnl,2023-11-09_20h12.27.885,midbabyloc,2023.2.2,59.92761032444129,
,,,,,,,,,370.7175078040018,12,blank-94.jpg,,DO,1,vpnl,2023-11-09_20h12.27.885,midbabyloc,2023.2.2,59.92761032444129,
,,,,,,,,,371.2177036739886,12,blank-95.jpg,,DO,1,vpnl,2023-11-09_20h12.27.885,midbabyloc,2023.2.2,59.92761032444129,
,,,,,,,,,371.7175033169915,12,blank-96.jpg,,DO,1,vpnl,2023-11-09_20h12.27.885,midbabyloc,2023.2.2,59.92761032444129,
,,,,,,,,,372.217515766999,13,cars-81.jpg,,DO,1,vpnl,2023-11-09_20h12.27.885,midbabyloc,2023.2.2,59.92761032444129,
,,,,,,,,,372.7177537339885,13,cars-82.jpg,,DO,1,vpnl,2023-11-09_20h12.27.885,midbabyloc,2023.2.2,59.92761032444129,
,,,,,,,,,373.21749610199186,13,cars-83.jpg,,DO,1,vpnl,2023-11-09_20h12.27.885,midbabyloc,2023.2.2,59.92761032444129,
,,,,,,,,,373.7175161549967,13,cars-84.jpg,,DO,1,vpnl,2023-11-09_20h12.27.885,midbabyloc,2023.2.2,59.92761032444129,
,,,,,,,,,374.2175859729905,13,cars-85.jpg,,DO,1,vpnl,2023-11-09_20h12.27.885,midbabyloc,2023.2.2,59.92761032444129,
,,,,,,,,,374.71739225399506,13,cars-86.jpg,,DO,1,vpnl,2023-11-09_20h12.27.885,midbabyloc,2023.2.2,59.92761032444129,
,,,,,,,,,375.2175018849957,13,cars-87.jpg,,DO,1,vpnl,2023-11-09_20h12.27.885,midbabyloc,2023.2.2,59.92761032444129,
,,,,,,,,,375.71740888999193,13,cars-88.jpg,,DO,1,vpnl,2023-11-09_20h12.27.885,midbabyloc,2023.2.2,59.92761032444129,
,,,,,,,,,376.2175249099964,14,scenes-81.jpg,,DO,1,vpnl,2023-11-09_20h12.27.885,midbabyloc,2023.2.2,59.92761032444129,
,,,,,,,,,376.7174402620003,14,scenes-82.jpg,,DO,1,vpnl,2023-11-09_20h12.27.885,midbabyloc,2023.2.2,59.92761032444129,
,,,,,,,,,377.2173444559885,14,scenes-83.jpg,,DO,1,vpnl,2023-11-09_20h12.27.885,midbabyloc,2023.2.2,59.92761032444129,
,,,,,,,,,377.7173931129946,14,scenes-84.jpg,,DO,1,vpnl,2023-11-09_20h12.27.885,midbabyloc,2023.2.2,59.92761032444129,
,,,,,,,,,378.2174025049899,14,scenes-85.jpg,,DO,1,vpnl,2023-11-09_20h12.27.885,midbabyloc,2023.2.2,59.92761032444129,
,,,,,,,,,378.7174133840017,14,scenes-86.jpg,,DO,1,vpnl,2023-11-09_20h12.27.885,midbabyloc,2023.2.2,59.92761032444129,
,,,,,,,,,379.21739544998854,14,scenes-87.jpg,,DO,1,vpnl,2023-11-09_20h12.27.885,midbabyloc,2023.2.2,59.92761032444129,
,,,,,,,,,379.71738662399,14,scenes-88.jpg,,DO,1,vpnl,2023-11-09_20h12.27.885,midbabyloc,2023.2.2,59.92761032444129,
,,,,,,,,,380.21732755399717,15,faces-81.jpg,,DO,1,vpnl,2023-11-09_20h12.27.885,midbabyloc,2023.2.2,59.92761032444129,
,,,,,,,,,380.71733917298843,15,faces-82.jpg,,DO,1,vpnl,2023-11-09_20h12.27.885,midbabyloc,2023.2.2,59.92761032444129,
,,,,,,,,,381.21740924699407,15,faces-83.jpg,,DO,1,vpnl,2023-11-09_20h12.27.885,midbabyloc,2023.2.2,59.92761032444129,
,,,,,,,,,381.71723363999627,15,faces-84.jpg,,DO,1,vpnl,2023-11-09_20h12.27.885,midbabyloc,2023.2.2,59.92761032444129,
,,,,,,,,,382.2173173889896,15,faces-85.jpg,,DO,1,vpnl,2023-11-09_20h12.27.885,midbabyloc,2023.2.2,59.92761032444129,
,,,,,,,,,382.7173674279911,15,faces-86.jpg,,DO,1,vpnl,2023-11-09_20h12.27.885,midbabyloc,2023.2.2,59.92761032444129,
,,,,,,,,,383.21729948499706,15,faces-87.jpg,,DO,1,vpnl,2023-11-09_20h12.27.885,midbabyloc,2023.2.2,59.92761032444129,
,,,,,,,,,383.71731946799264,15,faces-88.jpg,,DO,1,vpnl,2023-11-09_20h12.27.885,midbabyloc,2023.2.2,59.92761032444129,
,,,,,,,,,384.2172757359949,16,hands-81.jpg,,DO,1,vpnl,2023-11-09_20h12.27.885,midbabyloc,2023.2.2,59.92761032444129,
,,,,,,,,,384.7170993589971,16,hands-82.jpg,,DO,1,vpnl,2023-11-09_20h12.27.885,midbabyloc,2023.2.2,59.92761032444129,
,,,,,,,,,385.21720751999237,16,hands-83.jpg,,DO,1,vpnl,2023-11-09_20h12.27.885,midbabyloc,2023.2.2,59.92761032444129,
,,,,,,,,,385.71832965599606,16,hands-84.jpg,,DO,1,vpnl,2023-11-09_20h12.27.885,midbabyloc,2023.2.2,59.92761032444129,
,,,,,,,,,386.21730908298923,16,hands-85.jpg,,DO,1,vpnl,2023-11-09_20h12.27.885,midbabyloc,2023.2.2,59.92761032444129,
,,,,,,,,,386.71721809500013,16,hands-86.jpg,,DO,1,vpnl,2023-11-09_20h12.27.885,midbabyloc,2023.2.2,59.92761032444129,
,,,,,,,,,387.21720124299463,16,hands-87.jpg,,DO,1,vpnl,2023-11-09_20h12.27.885,midbabyloc,2023.2.2,59.92761032444129,
,,,,,,,,,387.7171717989986,16,hands-88.jpg,,DO,1,vpnl,2023-11-09_20h12.27.885,midbabyloc,2023.2.2,59.92761032444129,
,,,,,,,,,388.21726740099257,17,faces-89.jpg,,DO,1,vpnl,2023-11-09_20h12.27.885,midbabyloc,2023.2.2,59.92761032444129,
,,,,,,,,,388.71737101499457,17,faces-90.jpg,,DO,1,vpnl,2023-11-09_20h12.27.885,midbabyloc,2023.2.2,59.92761032444129,
,,,,,,,,,389.2172756459913,17,faces-91.jpg,,DO,1,vpnl,2023-11-09_20h12.27.885,midbabyloc,2023.2.2,59.92761032444129,
,,,,,,,,,389.71708129899343,17,faces-92.jpg,,DO,1,vpnl,2023-11-09_20h12.27.885,midbabyloc,2023.2.2,59.92761032444129,
,,,,,,,,,390.21718157098803,17,faces-93.jpg,,DO,1,vpnl,2023-11-09_20h12.27.885,midbabyloc,2023.2.2,59.92761032444129,
,,,,,,,,,390.7171255389985,17,faces-94.jpg,,DO,1,vpnl,2023-11-09_20h12.27.885,midbabyloc,2023.2.2,59.92761032444129,
,,,,,,,,,391.21716543799266,17,faces-95.jpg,,DO,1,vpnl,2023-11-09_20h12.27.885,midbabyloc,2023.2.2,59.92761032444129,
,,,,,,,,,391.7171172089875,17,faces-96.jpg,,DO,1,vpnl,2023-11-09_20h12.27.885,midbabyloc,2023.2.2,59.92761032444129,
,,,,,,,,,392.21715048799524,18,cars-89.jpg,,DO,1,vpnl,2023-11-09_20h12.27.885,midbabyloc,2023.2.2,59.92761032444129,
,,,,,,,,,392.7171848129947,18,cars-90.jpg,,DO,1,vpnl,2023-11-09_20h12.27.885,midbabyloc,2023.2.2,59.92761032444129,
,,,,,,,,,393.21714844499365,18,cars-91.jpg,,DO,1,vpnl,2023-11-09_20h12.27.885,midbabyloc,2023.2.2,59.92761032444129,
,,,,,,,,,393.71715184199275,18,cars-92.jpg,,DO,1,vpnl,2023-11-09_20h12.27.885,midbabyloc,2023.2.2,59.92761032444129,
,,,,,,,,,394.2172003779997,18,cars-93.jpg,,DO,1,vpnl,2023-11-09_20h12.27.885,midbabyloc,2023.2.2,59.92761032444129,
,,,,,,,,,394.71707885799697,18,cars-94.jpg,,DO,1,vpnl,2023-11-09_20h12.27.885,midbabyloc,2023.2.2,59.92761032444129,
,,,,,,,,,395.2170399759925,18,cars-95.jpg,,DO,1,vpnl,2023-11-09_20h12.27.885,midbabyloc,2023.2.2,59.92761032444129,
,,,,,,,,,395.71707195899216,18,cars-96.jpg,,DO,1,vpnl,2023-11-09_20h12.27.885,midbabyloc,2023.2.2,59.92761032444129,
,,,,,,,,,396.21697187899554,19,blank-97.jpg,,DO,1,vpnl,2023-11-09_20h12.27.885,midbabyloc,2023.2.2,59.92761032444129,
,,,,,,,,,396.71709377798834,19,blank-98.jpg,,DO,1,vpnl,2023-11-09_20h12.27.885,midbabyloc,2023.2.2,59.92761032444129,
,,,,,,,,,397.2170442969946,19,blank-99.jpg,,DO,1,vpnl,2023-11-09_20h12.27.885,midbabyloc,2023.2.2,59.92761032444129,
,,,,,,,,,397.71701405898784,19,blank-100.jpg,,DO,1,vpnl,2023-11-09_20h12.27.885,midbabyloc,2023.2.2,59.92761032444129,
,,,,,,,,,398.21705603699957,19,blank-101.jpg,,DO,1,vpnl,2023-11-09_20h12.27.885,midbabyloc,2023.2.2,59.92761032444129,
,,,,,,,,,398.7170665829908,19,blank-102.jpg,,DO,1,vpnl,2023-11-09_20h12.27.885,midbabyloc,2023.2.2,59.92761032444129,
,,,,,,,,,399.21693580099964,19,blank-103.jpg,,DO,1,vpnl,2023-11-09_20h12.27.885,midbabyloc,2023.2.2,59.92761032444129,
,,,,,,,,,399.7176589209994,19,blank-104.jpg,,DO,1,vpnl,2023-11-09_20h12.27.885,midbabyloc,2023.2.2,59.92761032444129,
,,,,,,,,,400.21697880300053,20,scenes-89.jpg,,DO,1,vpnl,2023-11-09_20h12.27.885,midbabyloc,2023.2.2,59.92761032444129,
,,,,,,,,,400.71696354899905,20,scenes-90.jpg,,DO,1,vpnl,2023-11-09_20h12.27.885,midbabyloc,2023.2.2,59.92761032444129,
,,,,,,,,,401.2169480379962,20,scenes-91.jpg,,DO,1,vpnl,2023-11-09_20h12.27.885,midbabyloc,2023.2.2,59.92761032444129,
,,,,,,,,,401.7170231399941,20,scenes-92.jpg,,DO,1,vpnl,2023-11-09_20h12.27.885,midbabyloc,2023.2.2,59.92761032444129,
,,,,,,,,,402.216852832993,20,scenes-93.jpg,,DO,1,vpnl,2023-11-09_20h12.27.885,midbabyloc,2023.2.2,59.92761032444129,
,,,,,,,,,402.71693488898745,20,scenes-94.jpg,,DO,1,vpnl,2023-11-09_20h12.27.885,midbabyloc,2023.2.2,59.92761032444129,
,,,,,,,,,403.21699690198875,20,scenes-95.jpg,,DO,1,vpnl,2023-11-09_20h12.27.885,midbabyloc,2023.2.2,59.92761032444129,
,,,,,,,,,403.7168984089949,20,scenes-96.jpg,,DO,1,vpnl,2023-11-09_20h12.27.885,midbabyloc,2023.2.2,59.92761032444129,
,,,,,,,,,404.2169453629904,21,hands-89.jpg,,DO,1,vpnl,2023-11-09_20h12.27.885,midbabyloc,2023.2.2,59.92761032444129,
,,,,,,,,,404.7168163669994,21,hands-90.jpg,,DO,1,vpnl,2023-11-09_20h12.27.885,midbabyloc,2023.2.2,59.92761032444129,
,,,,,,,,,405.21676216099877,21,hands-91.jpg,,DO,1,vpnl,2023-11-09_20h12.27.885,midbabyloc,2023.2.2,59.92761032444129,
,,,,,,,,,405.71683097699133,21,hands-92.jpg,,DO,1,vpnl,2023-11-09_20h12.27.885,midbabyloc,2023.2.2,59.92761032444129,
,,,,,,,,,406.2169184329978,21,hands-93.jpg,,DO,1,vpnl,2023-11-09_20h12.27.885,midbabyloc,2023.2.2,59.92761032444129,
,,,,,,,,,406.71682138698816,21,hands-94.jpg,,DO,1,vpnl,2023-11-09_20h12.27.885,midbabyloc,2023.2.2,59.92761032444129,
,,,,,,,,,407.21681030299806,21,hands-95.jpg,,DO,1,vpnl,2023-11-09_20h12.27.885,midbabyloc,2023.2.2,59.92761032444129,
,,,,,,,,,407.71710493900173,21,hands-96.jpg,,DO,1,vpnl,2023-11-09_20h12.27.885,midbabyloc,2023.2.2,59.92761032444129,
,,,,,,,,,408.2168049289903,22,blank-105.jpg,,DO,1,vpnl,2023-11-09_20h12.27.885,midbabyloc,2023.2.2,59.92761032444129,
,,,,,,,,,408.71680874199956,22,blank-106.jpg,,DO,1,vpnl,2023-11-09_20h12.27.885,midbabyloc,2023.2.2,59.92761032444129,
,,,,,,,,,409.216741842989,22,blank-107.jpg,,DO,1,vpnl,2023-11-09_20h12.27.885,midbabyloc,2023.2.2,59.92761032444129,
,,,,,,,,,409.71674810799595,22,blank-108.jpg,,DO,1,vpnl,2023-11-09_20h12.27.885,midbabyloc,2023.2.2,59.92761032444129,
,,,,,,,,,410.21678897200036,22,blank-109.jpg,,DO,1,vpnl,2023-11-09_20h12.27.885,midbabyloc,2023.2.2,59.92761032444129,
,,,,,,,,,410.71682320498803,22,blank-110.jpg,,DO,1,vpnl,2023-11-09_20h12.27.885,midbabyloc,2023.2.2,59.92761032444129,
,,,,,,,,,411.21689360999153,22,blank-111.jpg,,DO,1,vpnl,2023-11-09_20h12.27.885,midbabyloc,2023.2.2,59.92761032444129,
,,,,,,,,,411.7167307560012,22,blank-112.jpg,,DO,1,vpnl,2023-11-09_20h12.27.885,midbabyloc,2023.2.2,59.92761032444129,
,,,,,,,,,412.21674902099767,23,hands-97.jpg,,DO,1,vpnl,2023-11-09_20h12.27.885,midbabyloc,2023.2.2,59.92761032444129,
,,,,,,,,,412.7167544529948,23,hands-98.jpg,,DO,1,vpnl,2023-11-09_20h12.27.885,midbabyloc,2023.2.2,59.92761032444129,
,,,,,,,,,413.2167829050013,23,hands-99.jpg,,DO,1,vpnl,2023-11-09_20h12.27.885,midbabyloc,2023.2.2,59.92761032444129,
,,,,,,,,,413.71673226599523,23,hands-100.jpg,,DO,1,vpnl,2023-11-09_20h12.27.885,midbabyloc,2023.2.2,59.92761032444129,
,,,,,,,,,414.21667834398977,23,hands-101.jpg,,DO,1,vpnl,2023-11-09_20h12.27.885,midbabyloc,2023.2.2,59.92761032444129,
,,,,,,,,,414.716701982994,23,hands-102.jpg,,DO,1,vpnl,2023-11-09_20h12.27.885,midbabyloc,2023.2.2,59.92761032444129,
,,,,,,,,,415.2165385779954,23,hands-103.jpg,,DO,1,vpnl,2023-11-09_20h12.27.885,midbabyloc,2023.2.2,59.92761032444129,
,,,,,,,,,415.7166448219941,23,hands-104.jpg,,DO,1,vpnl,2023-11-09_20h12.27.885,midbabyloc,2023.2.2,59.92761032444129,
,,,,,,,,,416.21767760199145,24,cars-97.jpg,,DO,1,vpnl,2023-11-09_20h12.27.885,midbabyloc,2023.2.2,59.92761032444129,
,,,,,,,,,416.7166238929931,24,cars-98.jpg,,DO,1,vpnl,2023-11-09_20h12.27.885,midbabyloc,2023.2.2,59.92761032444129,
,,,,,,,,,417.21664041299664,24,cars-99.jpg,,DO,1,vpnl,2023-11-09_20h12.27.885,midbabyloc,2023.2.2,59.92761032444129,
,,,,,,,,,417.71656294299464,24,cars-100.jpg,,DO,1,vpnl,2023-11-09_20h12.27.885,midbabyloc,2023.2.2,59.92761032444129,
,,,,,,,,,418.21659628499765,24,cars-101.jpg,,DO,1,vpnl,2023-11-09_20h12.27.885,midbabyloc,2023.2.2,59.92761032444129,
,,,,,,,,,418.7166994779982,24,cars-102.jpg,,DO,1,vpnl,2023-11-09_20h12.27.885,midbabyloc,2023.2.2,59.92761032444129,
,,,,,,,,,419.21659747499507,24,cars-103.jpg,,DO,1,vpnl,2023-11-09_20h12.27.885,midbabyloc,2023.2.2,59.92761032444129,
,,,,,,,,,419.7165687989909,24,cars-104.jpg,,DO,1,vpnl,2023-11-09_20h12.27.885,midbabyloc,2023.2.2,59.92761032444129,
,,,,,,,,,420.21631889899436,25,faces-97.jpg,,DO,1,vpnl,2023-11-09_20h12.27.885,midbabyloc,2023.2.2,59.92761032444129,
,,,,,,,,,420.71654931599915,25,faces-98.jpg,,DO,1,vpnl,2023-11-09_20h12.27.885,midbabyloc,2023.2.2,59.92761032444129,
,,,,,,,,,421.21656716099824,25,faces-99.jpg,,DO,1,vpnl,2023-11-09_20h12.27.885,midbabyloc,2023.2.2,59.92761032444129,
,,,,,,,,,421.7166471149976,25,faces-100.jpg,,DO,1,vpnl,2023-11-09_20h12.27.885,midbabyloc,2023.2.2,59.92761032444129,
,,,,,,,,,422.21658541799115,25,faces-101.jpg,,DO,1,vpnl,2023-11-09_20h12.27.885,midbabyloc,2023.2.2,59.92761032444129,
,,,,,,,,,422.7166493849945,25,faces-102.jpg,,DO,1,vpnl,2023-11-09_20h12.27.885,midbabyloc,2023.2.2,59.92761032444129,
,,,,,,,,,423.2164901359938,25,faces-103.jpg,,DO,1,vpnl,2023-11-09_20h12.27.885,midbabyloc,2023.2.2,59.92761032444129,
,,,,,,,,,423.71655347399064,25,faces-104.jpg,,DO,1,vpnl,2023-11-09_20h12.27.885,midbabyloc,2023.2.2,59.92761032444129,
,,,,,,,,,424.21653065599094,26,scenes-97.jpg,,DO,1,vpnl,2023-11-09_20h12.27.885,midbabyloc,2023.2.2,59.92761032444129,
,,,,,,,,,424.71656051398895,26,scenes-98.jpg,,DO,1,vpnl,2023-11-09_20h12.27.885,midbabyloc,2023.2.2,59.92761032444129,
,,,,,,,,,425.21635779799544,26,scenes-99.jpg,,DO,1,vpnl,2023-11-09_20h12.27.885,midbabyloc,2023.2.2,59.92761032444129,
,,,,,,,,,425.71654168599343,26,scenes-100.jpg,,DO,1,vpnl,2023-11-09_20h12.27.885,midbabyloc,2023.2.2,59.92761032444129,
,,,,,,,,,426.2164257539989,26,scenes-101.jpg,,DO,1,vpnl,2023-11-09_20h12.27.885,midbabyloc,2023.2.2,59.92761032444129,
,,,,,,,,,426.71648778500094,26,scenes-102.jpg,,DO,1,vpnl,2023-11-09_20h12.27.885,midbabyloc,2023.2.2,59.92761032444129,
,,,,,,,,,427.2164146860014,26,scenes-103.jpg,,DO,1,vpnl,2023-11-09_20h12.27.885,midbabyloc,2023.2.2,59.92761032444129,
,,,,,,,,,427.716492431995,26,scenes-104.jpg,,DO,1,vpnl,2023-11-09_20h12.27.885,midbabyloc,2023.2.2,59.92761032444129,
,,,,,,,,,428.21650198599673,27,faces-105.jpg,,DO,1,vpnl,2023-11-09_20h12.27.885,midbabyloc,2023.2.2,59.92761032444129,
,,,,,,,,,428.716540636,27,faces-106.jpg,,DO,1,vpnl,2023-11-09_20h12.27.885,midbabyloc,2023.2.2,59.92761032444129,
,,,,,,,,,429.2164753609977,27,faces-107.jpg,,DO,1,vpnl,2023-11-09_20h12.27.885,midbabyloc,2023.2.2,59.92761032444129,
,,,,,,,,,429.71640765600023,27,faces-108.jpg,,DO,1,vpnl,2023-11-09_20h12.27.885,midbabyloc,2023.2.2,59.92761032444129,
,,,,,,,,,430.21639850299107,27,faces-109.jpg,,DO,1,vpnl,2023-11-09_20h12.27.885,midbabyloc,2023.2.2,59.92761032444129,
,,,,,,,,,430.71615827399364,27,faces-110.jpg,,DO,1,vpnl,2023-11-09_20h12.27.885,midbabyloc,2023.2.2,59.92761032444129,
,,,,,,,,,431.2164045719983,27,faces-111.jpg,,DO,1,vpnl,2023-11-09_20h12.27.885,midbabyloc,2023.2.2,59.92761032444129,
,,,,,,,,,431.7173986009875,27,faces-112.jpg,,DO,1,vpnl,2023-11-09_20h12.27.885,midbabyloc,2023.2.2,59.92761032444129,
,,,,,,,,,432.21637009299593,28,cars-105.jpg,,DO,1,vpnl,2023-11-09_20h12.27.885,midbabyloc,2023.2.2,59.92761032444129,
,,,,,,,,,432.7163561389898,28,cars-106.jpg,,DO,1,vpnl,2023-11-09_20h12.27.885,midbabyloc,2023.2.2,59.92761032444129,
,,,,,,,,,433.21639171100105,28,cars-107.jpg,,DO,1,vpnl,2023-11-09_20h12.27.885,midbabyloc,2023.2.2,59.92761032444129,
,,,,,,,,,433.7163337039965,28,cars-108.jpg,,DO,1,vpnl,2023-11-09_20h12.27.885,midbabyloc,2023.2.2,59.92761032444129,
,,,,,,,,,434.2163141399942,28,cars-109.jpg,,DO,1,vpnl,2023-11-09_20h12.27.885,midbabyloc,2023.2.2,59.92761032444129,
,,,,,,,,,434.7162643789925,28,cars-110.jpg,,DO,1,vpnl,2023-11-09_20h12.27.885,midbabyloc,2023.2.2,59.92761032444129,
,,,,,,,,,435.21627234699554,28,cars-111.jpg,,DO,1,vpnl,2023-11-09_20h12.27.885,midbabyloc,2023.2.2,59.92761032444129,
,,,,,,,,,435.71637368999654,28,cars-112.jpg,,DO,1,vpnl,2023-11-09_20h12.27.885,midbabyloc,2023.2.2,59.92761032444129,
,,,,,,,,,436.21629990400106,29,hands-105.jpg,,DO,1,vpnl,2023-11-09_20h12.27.885,midbabyloc,2023.2.2,59.92761032444129,
,,,,,,,,,436.71625771699473,29,hands-106.jpg,,DO,1,vpnl,2023-11-09_20h12.27.885,midbabyloc,2023.2.2,59.92761032444129,
,,,,,,,,,437.2162270970002,29,hands-107.jpg,,DO,1,vpnl,2023-11-09_20h12.27.885,midbabyloc,2023.2.2,59.92761032444129,
,,,,,,,,,437.71631046698894,29,hands-108.jpg,,DO,1,vpnl,2023-11-09_20h12.27.885,midbabyloc,2023.2.2,59.92761032444129,
,,,,,,,,,438.2162948389887,29,hands-109.jpg,,DO,1,vpnl,2023-11-09_20h12.27.885,midbabyloc,2023.2.2,59.92761032444129,
,,,,,,,,,438.71623039100086,29,hands-110.jpg,,DO,1,vpnl,2023-11-09_20h12.27.885,midbabyloc,2023.2.2,59.92761032444129,
,,,,,,,,,439.2161757849972,29,hands-111.jpg,,DO,1,vpnl,2023-11-09_20h12.27.885,midbabyloc,2023.2.2,59.92761032444129,
,,,,,,,,,439.716192685999,29,hands-112.jpg,,DO,1,vpnl,2023-11-09_20h12.27.885,midbabyloc,2023.2.2,59.92761032444129,
,,,,,,,,,440.21640416799346,30,blank-113.jpg,,DO,1,vpnl,2023-11-09_20h12.27.885,midbabyloc,2023.2.2,59.92761032444129,
,,,,,,,,,440.71623541899316,30,blank-114.jpg,,DO,1,vpnl,2023-11-09_20h12.27.885,midbabyloc,2023.2.2,59.92761032444129,
,,,,,,,,,441.2162577179988,30,blank-115.jpg,,DO,1,vpnl,2023-11-09_20h12.27.885,midbabyloc,2023.2.2,59.92761032444129,
,,,,,,,,,441.7162052519998,30,blank-116.jpg,,DO,1,vpnl,2023-11-09_20h12.27.885,midbabyloc,2023.2.2,59.92761032444129,
,,,,,,,,,442.21619968499,30,blank-117.jpg,,DO,1,vpnl,2023-11-09_20h12.27.885,midbabyloc,2023.2.2,59.92761032444129,
,,,,,,,,,442.7163388179906,30,blank-118.jpg,,DO,1,vpnl,2023-11-09_20h12.27.885,midbabyloc,2023.2.2,59.92761032444129,
,,,,,,,,,443.2163086789951,30,blank-119.jpg,,DO,1,vpnl,2023-11-09_20h12.27.885,midbabyloc,2023.2.2,59.92761032444129,
,,,,,,,,,443.7161477999907,30,blank-120.jpg,,DO,1,vpnl,2023-11-09_20h12.27.885,midbabyloc,2023.2.2,59.92761032444129,
,,,,,,,,,444.2161182199925,31,scenes-105.jpg,,DO,1,vpnl,2023-11-09_20h12.27.885,midbabyloc,2023.2.2,59.92761032444129,
,,,,,,,,,444.716122111,31,scenes-106.jpg,,DO,1,vpnl,2023-11-09_20h12.27.885,midbabyloc,2023.2.2,59.92761032444129,
,,,,,,,,,445.21601557898975,31,scenes-107.jpg,,DO,1,vpnl,2023-11-09_20h12.27.885,midbabyloc,2023.2.2,59.92761032444129,
,,,,,,,,,445.7163181819924,31,scenes-108.jpg,,DO,1,vpnl,2023-11-09_20h12.27.885,midbabyloc,2023.2.2,59.92761032444129,
,,,,,,,,,446.21620535799593,31,scenes-109.jpg,,DO,1,vpnl,2023-11-09_20h12.27.885,midbabyloc,2023.2.2,59.92761032444129,
,,,,,,,,,446.71617842999694,31,scenes-110.jpg,,DO,1,vpnl,2023-11-09_20h12.27.885,midbabyloc,2023.2.2,59.92761032444129,
,,,,,,,,,447.21601514099166,31,scenes-111.jpg,,DO,1,vpnl,2023-11-09_20h12.27.885,midbabyloc,2023.2.2,59.92761032444129,
,,,,,,,,,447.71609240499674,31,scenes-112.jpg,,DO,1,vpnl,2023-11-09_20h12.27.885,midbabyloc,2023.2.2,59.92761032444129,
,,,,,,,,,448.21602913299284,32,blank-121.jpg,,DO,1,vpnl,2023-11-09_20h12.27.885,midbabyloc,2023.2.2,59.92761032444129,
,,,,,,,,,448.7163796870009,32,blank-122.jpg,,DO,1,vpnl,2023-11-09_20h12.27.885,midbabyloc,2023.2.2,59.92761032444129,
,,,,,,,,,449.21613758499734,32,blank-123.jpg,,DO,1,vpnl,2023-11-09_20h12.27.885,midbabyloc,2023.2.2,59.92761032444129,
,,,,,,,,,449.71602523198817,32,blank-124.jpg,,DO,1,vpnl,2023-11-09_20h12.27.885,midbabyloc,2023.2.2,59.92761032444129,
,,,,,,,,,450.21603031999257,32,blank-125.jpg,,DO,1,vpnl,2023-11-09_20h12.27.885,midbabyloc,2023.2.2,59.92761032444129,
,,,,,,,,,450.7160136439925,32,blank-126.jpg,,DO,1,vpnl,2023-11-09_20h12.27.885,midbabyloc,2023.2.2,59.92761032444129,
,,,,,,,,,451.2160875010013,32,blank-127.jpg,,DO,1,vpnl,2023-11-09_20h12.27.885,midbabyloc,2023.2.2,59.92761032444129,
,,,,,,,,,451.7162409549928,32,blank-128.jpg,,DO,1,vpnl,2023-11-09_20h12.27.885,midbabyloc,2023.2.2,59.92761032444129,
,,,,,,,,,452.216087281995,33,hands-113.jpg,,DO,1,vpnl,2023-11-09_20h12.27.885,midbabyloc,2023.2.2,59.92761032444129,
,,,,,,,,,452.71615505899535,33,hands-114.jpg,,DO,1,vpnl,2023-11-09_20h12.27.885,midbabyloc,2023.2.2,59.92761032444129,
,,,,,,,,,453.2160058369918,33,hands-115.jpg,,DO,1,vpnl,2023-11-09_20h12.27.885,midbabyloc,2023.2.2,59.92761032444129,
,,,,,,,,,453.7159780899965,33,hands-116.jpg,,DO,1,vpnl,2023-11-09_20h12.27.885,midbabyloc,2023.2.2,59.92761032444129,
,,,,,,,,,454.2160092389968,33,hands-117.jpg,,DO,1,vpnl,2023-11-09_20h12.27.885,midbabyloc,2023.2.2,59.92761032444129,
,,,,,,,,,454.71596344700083,33,hands-118.jpg,,DO,1,vpnl,2023-11-09_20h12.27.885,midbabyloc,2023.2.2,59.92761032444129,
,,,,,,,,,455.2163940019964,33,hands-119.jpg,,DO,1,vpnl,2023-11-09_20h12.27.885,midbabyloc,2023.2.2,59.92761032444129,
,,,,,,,,,455.71588294999674,33,hands-120.jpg,,DO,1,vpnl,2023-11-09_20h12.27.885,midbabyloc,2023.2.2,59.92761032444129,
,,,,,,,,,456.2158602929994,34,scenes-113.jpg,,DO,1,vpnl,2023-11-09_20h12.27.885,midbabyloc,2023.2.2,59.92761032444129,
,,,,,,,,,456.7158911890001,34,scenes-114.jpg,,DO,1,vpnl,2023-11-09_20h12.27.885,midbabyloc,2023.2.2,59.92761032444129,
,,,,,,,,,457.2159505239979,34,scenes-115.jpg,,DO,1,vpnl,2023-11-09_20h12.27.885,midbabyloc,2023.2.2,59.92761032444129,
,,,,,,,,,457.71597018399916,34,scenes-116.jpg,,DO,1,vpnl,2023-11-09_20h12.27.885,midbabyloc,2023.2.2,59.92761032444129,
,,,,,,,,,458.2161110809975,34,scenes-117.jpg,,DO,1,vpnl,2023-11-09_20h12.27.885,midbabyloc,2023.2.2,59.92761032444129,
,,,,,,,,,458.7159538720007,34,scenes-118.jpg,,DO,1,vpnl,2023-11-09_20h12.27.885,midbabyloc,2023.2.2,59.92761032444129,
,,,,,,,,,459.21588439299376,34,scenes-119.jpg,,DO,1,vpnl,2023-11-09_20h12.27.885,midbabyloc,2023.2.2,59.92761032444129,
,,,,,,,,,459.7158193439973,34,scenes-120.jpg,,DO,1,vpnl,2023-11-09_20h12.27.885,midbabyloc,2023.2.2,59.92761032444129,
,,,,,,,,,460.21581797699037,35,cars-113.jpg,,DO,1,vpnl,2023-11-09_20h12.27.885,midbabyloc,2023.2.2,59.92761032444129,
,,,,,,,,,460.7157469949889,35,cars-114.jpg,,DO,1,vpnl,2023-11-09_20h12.27.885,midbabyloc,2023.2.2,59.92761032444129,
,,,,,,,,,461.2157235469931,35,cars-115.jpg,,DO,1,vpnl,2023-11-09_20h12.27.885,midbabyloc,2023.2.2,59.92761032444129,
,,,,,,,,,461.7158179299877,35,cars-116.jpg,,DO,1,vpnl,2023-11-09_20h12.27.885,midbabyloc,2023.2.2,59.92761032444129,
,,,,,,,,,462.2162723169895,35,cars-117.jpg,,DO,1,vpnl,2023-11-09_20h12.27.885,midbabyloc,2023.2.2,59.92761032444129,
,,,,,,,,,462.7157480599999,35,cars-118.jpg,,DO,1,vpnl,2023-11-09_20h12.27.885,midbabyloc,2023.2.2,59.92761032444129,
,,,,,,,,,463.21580965998874,35,cars-119.jpg,,DO,1,vpnl,2023-11-09_20h12.27.885,midbabyloc,2023.2.2,59.92761032444129,
,,,,,,,,,463.7158076630003,35,cars-120.jpg,,DO,1,vpnl,2023-11-09_20h12.27.885,midbabyloc,2023.2.2,59.92761032444129,
,,,,,,,,,464.2157413709938,36,faces-113.jpg,,DO,1,vpnl,2023-11-09_20h12.27.885,midbabyloc,2023.2.2,59.92761032444129,
,,,,,,,,,464.7156525229948,36,faces-114.jpg,,DO,1,vpnl,2023-11-09_20h12.27.885,midbabyloc,2023.2.2,59.92761032444129,
,,,,,,,,,465.21560510099516,36,faces-115.jpg,,DO,1,vpnl,2023-11-09_20h12.27.885,midbabyloc,2023.2.2,59.92761032444129,
,,,,,,,,,465.7158198049874,36,faces-116.jpg,,DO,1,vpnl,2023-11-09_20h12.27.885,midbabyloc,2023.2.2,59.92761032444129,
,,,,,,,,,466.2156808239961,36,faces-117.jpg,,DO,1,vpnl,2023-11-09_20h12.27.885,midbabyloc,2023.2.2,59.92761032444129,
,,,,,,,,,466.71574136900017,36,faces-118.jpg,,DO,1,vpnl,2023-11-09_20h12.27.885,midbabyloc,2023.2.2,59.92761032444129,
,,,,,,,,,467.2156983210007,36,faces-119.jpg,,DO,1,vpnl,2023-11-09_20h12.27.885,midbabyloc,2023.2.2,59.92761032444129,
,,,,,,,,,467.71566583699314,36,faces-120.jpg,,DO,1,vpnl,2023-11-09_20h12.27.885,midbabyloc,2023.2.2,59.92761032444129,
,,,,,,,,,468.21564881299855,37,blank-129.jpg,,DO,1,vpnl,2023-11-09_20h12.27.885,midbabyloc,2023.2.2,59.92761032444129,
,,,,,,,,,468.715673114988,37,blank-130.jpg,,DO,1,vpnl,2023-11-09_20h12.27.885,midbabyloc,2023.2.2,59.92761032444129,
,,,,,,,,,469.21564196099644,37,blank-131.jpg,,DO,1,vpnl,2023-11-09_20h12.27.885,midbabyloc,2023.2.2,59.92761032444129,
,,,,,,,,,469.7155721089948,37,blank-132.jpg,,DO,1,vpnl,2023-11-09_20h12.27.885,midbabyloc,2023.2.2,59.92761032444129,
,,,,,,,,,470.216477761991,37,blank-133.jpg,,DO,1,vpnl,2023-11-09_20h12.27.885,midbabyloc,2023.2.2,59.92761032444129,
,,,,,,,,,470.71608931099763,37,blank-134.jpg,,DO,1,vpnl,2023-11-09_20h12.27.885,midbabyloc,2023.2.2,59.92761032444129,
,,,,,,,,,471.215637411995,37,blank-135.jpg,,DO,1,vpnl,2023-11-09_20h12.27.885,midbabyloc,2023.2.2,59.92761032444129,
,,,,,,,,,471.71564681999735,37,blank-136.jpg,,DO,1,vpnl,2023-11-09_20h12.27.885,midbabyloc,2023.2.2,59.92761032444129,
,,,,,,,,,472.2155778049928,38,faces-121.jpg,,DO,1,vpnl,2023-11-09_20h12.27.885,midbabyloc,2023.2.2,59.92761032444129,
,,,,,,,,,472.7157242359972,38,faces-122.jpg,,DO,1,vpnl,2023-11-09_20h12.27.885,midbabyloc,2023.2.2,59.92761032444129,
,,,,,,,,,473.21555081699626,38,faces-123.jpg,,DO,1,vpnl,2023-11-09_20h12.27.885,midbabyloc,2023.2.2,59.92761032444129,
,,,,,,,,,473.7156372909958,38,faces-124.jpg,,DO,1,vpnl,2023-11-09_20h12.27.885,midbabyloc,2023.2.2,59.92761032444129,
,,,,,,,,,474.21551370499947,38,faces-125.jpg,,DO,1,vpnl,2023-11-09_20h12.27.885,midbabyloc,2023.2.2,59.92761032444129,
,,,,,,,,,474.7158650219935,38,faces-126.jpg,,DO,1,vpnl,2023-11-09_20h12.27.885,midbabyloc,2023.2.2,59.92761032444129,
,,,,,,,,,475.2154944609938,38,faces-127.jpg,,DO,1,vpnl,2023-11-09_20h12.27.885,midbabyloc,2023.2.2,59.92761032444129,
,,,,,,,,,475.7156698209874,38,faces-128.jpg,,DO,1,vpnl,2023-11-09_20h12.27.885,midbabyloc,2023.2.2,59.92761032444129,
,,,,,,,,,476.2156337639899,39,cars-121.jpg,,DO,1,vpnl,2023-11-09_20h12.27.885,midbabyloc,2023.2.2,59.92761032444129,
,,,,,,,,,476.71552490399336,39,cars-122.jpg,,DO,1,vpnl,2023-11-09_20h12.27.885,midbabyloc,2023.2.2,59.92761032444129,
,,,,,,,,,477.21547433699016,39,cars-123.jpg,,DO,1,vpnl,2023-11-09_20h12.27.885,midbabyloc,2023.2.2,59.92761032444129,
,,,,,,,,,477.71556225400127,39,cars-124.jpg,,DO,1,vpnl,2023-11-09_20h12.27.885,midbabyloc,2023.2.2,59.92761032444129,
,,,,,,,,,478.21548261499265,39,cars-125.jpg,,DO,1,vpnl,2023-11-09_20h12.27.885,midbabyloc,2023.2.2,59.92761032444129,
,,,,,,,,,478.7155196899985,39,cars-126.jpg,,DO,1,vpnl,2023-11-09_20h12.27.885,midbabyloc,2023.2.2,59.92761032444129,
,,,,,,,,,479.2156195649877,39,cars-127.jpg,,DO,1,vpnl,2023-11-09_20h12.27.885,midbabyloc,2023.2.2,59.92761032444129,
,,,,,,,,,479.71547336899675,39,cars-128.jpg,,DO,1,vpnl,2023-11-09_20h12.27.885,midbabyloc,2023.2.2,59.92761032444129,
,,,,,,,,,480.2156183999905,40,scenes-121.jpg,,DO,1,vpnl,2023-11-09_20h12.27.885,midbabyloc,2023.2.2,59.92761032444129,
,,,,,,,,,480.71582808799576,40,scenes-122.jpg,,DO,1,vpnl,2023-11-09_20h12.27.885,midbabyloc,2023.2.2,59.92761032444129,
,,,,,,,,,481.21539220299746,40,scenes-123.jpg,,DO,1,vpnl,2023-11-09_20h12.27.885,midbabyloc,2023.2.2,59.92761032444129,
,,,,,,,,,481.7157138229959,40,scenes-124.jpg,,DO,1,vpnl,2023-11-09_20h12.27.885,midbabyloc,2023.2.2,59.92761032444129,
,,,,,,,,,482.21645744999114,40,scenes-125.jpg,,DO,1,vpnl,2023-11-09_20h12.27.885,midbabyloc,2023.2.2,59.92761032444129,
,,,,,,,,,482.7155268919887,40,scenes-126.jpg,,DO,1,vpnl,2023-11-09_20h12.27.885,midbabyloc,2023.2.2,59.92761032444129,
,,,,,,,,,483.2155091129971,40,scenes-127.jpg,,DO,1,vpnl,2023-11-09_20h12.27.885,midbabyloc,2023.2.2,59.92761032444129,
,,,,,,,,,483.7154464269988,40,scenes-128.jpg,,DO,1,vpnl,2023-11-09_20h12.27.885,midbabyloc,2023.2.2,59.92761032444129,
,,,,,,,,,484.21535214099276,41,hands-121.jpg,,DO,1,vpnl,2023-11-09_20h12.27.885,midbabyloc,2023.2.2,59.92761032444129,
,,,,,,,,,484.71530290499504,41,hands-122.jpg,,DO,1,vpnl,2023-11-09_20h12.27.885,midbabyloc,2023.2.2,59.92761032444129,
,,,,,,,,,485.2154036839929,41,hands-123.jpg,,DO,1,vpnl,2023-11-09_20h12.27.885,midbabyloc,2023.2.2,59.92761032444129,
,,,,,,,,,485.7153996549896,41,hands-124.jpg,,DO,1,vpnl,2023-11-09_20h12.27.885,midbabyloc,2023.2.2,59.92761032444129,
,,,,,,,,,486.2153692599968,41,hands-125.jpg,,DO,1,vpnl,2023-11-09_20h12.27.885,midbabyloc,2023.2.2,59.92761032444129,
,,,,,,,,,486.7153732459992,41,hands-126.jpg,,DO,1,vpnl,2023-11-09_20h12.27.885,midbabyloc,2023.2.2,59.92761032444129,
,,,,,,,,,487.2152983900014,41,hands-127.jpg,,DO,1,vpnl,2023-11-09_20h12.27.885,midbabyloc,2023.2.2,59.92761032444129,
,,,,,,,,,487.71525705899694,41,hands-128.jpg,,DO,1,vpnl,2023-11-09_20h12.27.885,midbabyloc,2023.2.2,59.92761032444129,
,,,,,,,,,488.2153115909896,42,blank-137.jpg,,DO,1,vpnl,2023-11-09_20h12.27.885,midbabyloc,2023.2.2,59.92761032444129,
,,,,,,,,,488.7153179929883,42,blank-138.jpg,,DO,1,vpnl,2023-11-09_20h12.27.885,midbabyloc,2023.2.2,59.92761032444129,
,,,,,,,,,489.2153191440011,42,blank-139.jpg,,DO,1,vpnl,2023-11-09_20h12.27.885,midbabyloc,2023.2.2,59.92761032444129,
,,,,,,,,,489.7157793249935,42,blank-140.jpg,,DO,1,vpnl,2023-11-09_20h12.27.885,midbabyloc,2023.2.2,59.92761032444129,
,,,,,,,,,490.21531211800175,42,blank-141.jpg,,DO,1,vpnl,2023-11-09_20h12.27.885,midbabyloc,2023.2.2,59.92761032444129,
,,,,,,,,,490.71533216399257,42,blank-142.jpg,,DO,1,vpnl,2023-11-09_20h12.27.885,midbabyloc,2023.2.2,59.92761032444129,
,,,,,,,,,491.21547454199754,42,blank-143.jpg,,DO,1,vpnl,2023-11-09_20h12.27.885,midbabyloc,2023.2.2,59.92761032444129,
,,,,,,,,,491.71532854899124,42,blank-144.jpg,,DO,1,vpnl,2023-11-09_20h12.27.885,midbabyloc,2023.2.2,59.92761032444129,
