thisRow.t,notes,waiting_for_trigger_text.started,trigger.started,trigger.keys,trigger.rt,countdown.started,trial.stopped,stimuli.started,condition,stim_name,participant,run,user,date,expName,psychopyVersion,frameRate,
,,28.990996017004363,28.990996017004363,t,105.08618736898643,,,,,,AC,1,vpnl,2023-11-16_20h41.18.189,shortbabyloc,2023.2.2,59.85078720210812,
,,,,,,134.136737533001,111.13184463999642,140.12678192699968,1,blank-1.jpg,AC,1,vpnl,2023-11-16_20h41.18.189,shortbabyloc,2023.2.2,59.85078720210812,
,,,,,,,,140.62678110600973,1,blank-2.jpg,AC,1,vpnl,2023-11-16_20h41.18.189,shortbabyloc,2023.2.2,59.85078720210812,
,,,,,,,,141.12688037801126,1,blank-3.jpg,AC,1,vpnl,2023-11-16_20h41.18.189,shortbabyloc,2023.2.2,59.85078720210812,
,,,,,,,,141.62674350501038,1,blank-4.jpg,AC,1,vpnl,2023-11-16_20h41.18.189,shortbabyloc,2023.2.2,59.85078720210812,
,,,,,,,,142.12680682900827,1,blank-5.jpg,AC,1,vpnl,2023-11-16_20h41.18.189,shortbabyloc,2023.2.2,59.85078720210812,
,,,,,,,,142.62687623500824,1,blank-6.jpg,AC,1,vpnl,2023-11-16_20h41.18.189,shortbabyloc,2023.2.2,59.85078720210812,
,,,,,,,,143.12599256201065,1,blank-7.jpg,AC,1,vpnl,2023-11-16_20h41.18.189,shortbabyloc,2023.2.2,59.85078720210812,
,,,,,,,,143.6262834730005,1,blank-8.jpg,AC,1,vpnl,2023-11-16_20h41.18.189,shortbabyloc,2023.2.2,59.85078720210812,
,,,,,,,,144.1270532100025,2,scenes-1.jpg,AC,1,vpnl,2023-11-16_20h41.18.189,shortbabyloc,2023.2.2,59.85078720210812,
,,,,,,,,144.62712172100146,2,scenes-2.jpg,AC,1,vpnl,2023-11-16_20h41.18.189,shortbabyloc,2023.2.2,59.85078720210812,
,,,,,,,,145.1271751280001,2,scenes-3.jpg,AC,1,vpnl,2023-11-16_20h41.18.189,shortbabyloc,2023.2.2,59.85078720210812,
,,,,,,,,145.62645060100476,2,scenes-4.jpg,AC,1,vpnl,2023-11-16_20h41.18.189,shortbabyloc,2023.2.2,59.85078720210812,
,,,,,,,,146.12677821599937,2,scenes-5.jpg,AC,1,vpnl,2023-11-16_20h41.18.189,shortbabyloc,2023.2.2,59.85078720210812,
,,,,,,,,146.62713268800871,2,scenes-6.jpg,AC,1,vpnl,2023-11-16_20h41.18.189,shortbabyloc,2023.2.2,59.85078720210812,
,,,,,,,,147.1269920360064,2,scenes-7.jpg,AC,1,vpnl,2023-11-16_20h41.18.189,shortbabyloc,2023.2.2,59.85078720210812,
,,,,,,,,147.62676617100078,2,scenes-8.jpg,AC,1,vpnl,2023-11-16_20h41.18.189,shortbabyloc,2023.2.2,59.85078720210812,
,,,,,,,,148.12639518200012,3,blank-9.jpg,AC,1,vpnl,2023-11-16_20h41.18.189,shortbabyloc,2023.2.2,59.85078720210812,
,,,,,,,,148.62653275100456,3,blank-10.jpg,AC,1,vpnl,2023-11-16_20h41.18.189,shortbabyloc,2023.2.2,59.85078720210812,
,,,,,,,,149.1265273070021,3,blank-11.jpg,AC,1,vpnl,2023-11-16_20h41.18.189,shortbabyloc,2023.2.2,59.85078720210812,
,,,,,,,,149.62664324999787,3,blank-12.jpg,AC,1,vpnl,2023-11-16_20h41.18.189,shortbabyloc,2023.2.2,59.85078720210812,
,,,,,,,,150.1268193750002,3,blank-13.jpg,AC,1,vpnl,2023-11-16_20h41.18.189,shortbabyloc,2023.2.2,59.85078720210812,
,,,,,,,,150.62870146799833,3,blank-14.jpg,AC,1,vpnl,2023-11-16_20h41.18.189,shortbabyloc,2023.2.2,59.85078720210812,
,,,,,,,,151.12813664300484,3,blank-15.jpg,AC,1,vpnl,2023-11-16_20h41.18.189,shortbabyloc,2023.2.2,59.85078720210812,
,,,,,,,,151.6297239740088,3,blank-16.jpg,AC,1,vpnl,2023-11-16_20h41.18.189,shortbabyloc,2023.2.2,59.85078720210812,
,,,,,,,,152.1298365469993,4,faces-1.jpg,AC,1,vpnl,2023-11-16_20h41.18.189,shortbabyloc,2023.2.2,59.85078720210812,
,,,,,,,,152.62887290700746,4,faces-2.jpg,AC,1,vpnl,2023-11-16_20h41.18.189,shortbabyloc,2023.2.2,59.85078720210812,
,,,,,,,,153.12892565500806,4,faces-3.jpg,AC,1,vpnl,2023-11-16_20h41.18.189,shortbabyloc,2023.2.2,59.85078720210812,
,,,,,,,,153.6288978520024,4,faces-4.jpg,AC,1,vpnl,2023-11-16_20h41.18.189,shortbabyloc,2023.2.2,59.85078720210812,
,,,,,,,,154.12871134700254,4,faces-5.jpg,AC,1,vpnl,2023-11-16_20h41.18.189,shortbabyloc,2023.2.2,59.85078720210812,
,,,,,,,,154.62882988101046,4,faces-6.jpg,AC,1,vpnl,2023-11-16_20h41.18.189,shortbabyloc,2023.2.2,59.85078720210812,
,,,,,,,,155.12870864200522,4,faces-7.jpg,AC,1,vpnl,2023-11-16_20h41.18.189,shortbabyloc,2023.2.2,59.85078720210812,
,,,,,,,,155.63078140201105,4,faces-8.jpg,AC,1,vpnl,2023-11-16_20h41.18.189,shortbabyloc,2023.2.2,59.85078720210812,
,,,,,,,,156.1300278569979,5,cars-1.jpg,AC,1,vpnl,2023-11-16_20h41.18.189,shortbabyloc,2023.2.2,59.85078720210812,
,,,,,,,,156.63075722500798,5,cars-2.jpg,AC,1,vpnl,2023-11-16_20h41.18.189,shortbabyloc,2023.2.2,59.85078720210812,
,,,,,,,,157.13056429600692,5,cars-3.jpg,AC,1,vpnl,2023-11-16_20h41.18.189,shortbabyloc,2023.2.2,59.85078720210812,
,,,,,,,,157.62868467600492,5,cars-4.jpg,AC,1,vpnl,2023-11-16_20h41.18.189,shortbabyloc,2023.2.2,59.85078720210812,
,,,,,,,,158.12845600600122,5,cars-5.jpg,AC,1,vpnl,2023-11-16_20h41.18.189,shortbabyloc,2023.2.2,59.85078720210812,
,,,,,,,,158.62856203700358,5,cars-6.jpg,AC,1,vpnl,2023-11-16_20h41.18.189,shortbabyloc,2023.2.2,59.85078720210812,
,,,,,,,,159.12787509401096,5,cars-7.jpg,AC,1,vpnl,2023-11-16_20h41.18.189,shortbabyloc,2023.2.2,59.85078720210812,
,,,,,,,,159.62869120899995,5,cars-8.jpg,AC,1,vpnl,2023-11-16_20h41.18.189,shortbabyloc,2023.2.2,59.85078720210812,
,,,,,,,,160.12850658599928,6,hands-1.jpg,AC,1,vpnl,2023-11-16_20h41.18.189,shortbabyloc,2023.2.2,59.85078720210812,
,,,,,,,,160.6286318229977,6,hands-2.jpg,AC,1,vpnl,2023-11-16_20h41.18.189,shortbabyloc,2023.2.2,59.85078720210812,
,,,,,,,,161.12860184600868,6,hands-3.jpg,AC,1,vpnl,2023-11-16_20h41.18.189,shortbabyloc,2023.2.2,59.85078720210812,
,,,,,,,,161.6282785700023,6,hands-4.jpg,AC,1,vpnl,2023-11-16_20h41.18.189,shortbabyloc,2023.2.2,59.85078720210812,
,,,,,,,,162.12867882799765,6,hands-5.jpg,AC,1,vpnl,2023-11-16_20h41.18.189,shortbabyloc,2023.2.2,59.85078720210812,
,,,,,,,,162.62853635000647,6,hands-6.jpg,AC,1,vpnl,2023-11-16_20h41.18.189,shortbabyloc,2023.2.2,59.85078720210812,
,,,,,,,,163.12978472000395,6,hands-7.jpg,AC,1,vpnl,2023-11-16_20h41.18.189,shortbabyloc,2023.2.2,59.85078720210812,
,,,,,,,,163.63020720300847,6,hands-8.jpg,AC,1,vpnl,2023-11-16_20h41.18.189,shortbabyloc,2023.2.2,59.85078720210812,
,,,,,,,,164.1306703540031,7,cars-9.jpg,AC,1,vpnl,2023-11-16_20h41.18.189,shortbabyloc,2023.2.2,59.85078720210812,
,,,,,,,,164.6314668020059,7,cars-10.jpg,AC,1,vpnl,2023-11-16_20h41.18.189,shortbabyloc,2023.2.2,59.85078720210812,
,,,,,,,,165.12913062800362,7,cars-11.jpg,AC,1,vpnl,2023-11-16_20h41.18.189,shortbabyloc,2023.2.2,59.85078720210812,
,,,,,,,,165.62860144500155,7,cars-12.jpg,AC,1,vpnl,2023-11-16_20h41.18.189,shortbabyloc,2023.2.2,59.85078720210812,
,,,,,,,,166.12846635600727,7,cars-13.jpg,AC,1,vpnl,2023-11-16_20h41.18.189,shortbabyloc,2023.2.2,59.85078720210812,
,,,,,,,,166.6302716860082,7,cars-14.jpg,AC,1,vpnl,2023-11-16_20h41.18.189,shortbabyloc,2023.2.2,59.85078720210812,
,,,,,,,,167.1299661630037,7,cars-15.jpg,AC,1,vpnl,2023-11-16_20h41.18.189,shortbabyloc,2023.2.2,59.85078720210812,
,,,,,,,,167.6295734640007,7,cars-16.jpg,AC,1,vpnl,2023-11-16_20h41.18.189,shortbabyloc,2023.2.2,59.85078720210812,
,,,,,,,,168.13056642100855,8,scenes-9.jpg,AC,1,vpnl,2023-11-16_20h41.18.189,shortbabyloc,2023.2.2,59.85078720210812,
,,,,,,,,168.63060087700433,8,scenes-10.jpg,AC,1,vpnl,2023-11-16_20h41.18.189,shortbabyloc,2023.2.2,59.85078720210812,
,,,,,,,,169.1301693060086,8,scenes-11.jpg,AC,1,vpnl,2023-11-16_20h41.18.189,shortbabyloc,2023.2.2,59.85078720210812,
,,,,,,,,169.62098415200307,8,scenes-12.jpg,AC,1,vpnl,2023-11-16_20h41.18.189,shortbabyloc,2023.2.2,59.85078720210812,
,,,,,,,,170.12885899400862,8,scenes-13.jpg,AC,1,vpnl,2023-11-16_20h41.18.189,shortbabyloc,2023.2.2,59.85078720210812,
,,,,,,,,170.62816970700806,8,scenes-14.jpg,AC,1,vpnl,2023-11-16_20h41.18.189,shortbabyloc,2023.2.2,59.85078720210812,
,,,,,,,,171.12820621101127,8,scenes-15.jpg,AC,1,vpnl,2023-11-16_20h41.18.189,shortbabyloc,2023.2.2,59.85078720210812,
,,,,,,,,171.62948843800405,8,scenes-16.jpg,AC,1,vpnl,2023-11-16_20h41.18.189,shortbabyloc,2023.2.2,59.85078720210812,
,,,,,,,,172.13108904600085,9,faces-9.jpg,AC,1,vpnl,2023-11-16_20h41.18.189,shortbabyloc,2023.2.2,59.85078720210812,
,,,,,,,,172.62967053300235,9,faces-10.jpg,AC,1,vpnl,2023-11-16_20h41.18.189,shortbabyloc,2023.2.2,59.85078720210812,
,,,,,,,,173.13044705100765,9,faces-11.jpg,AC,1,vpnl,2023-11-16_20h41.18.189,shortbabyloc,2023.2.2,59.85078720210812,
,,,,,,,,173.6301017759979,9,faces-12.jpg,AC,1,vpnl,2023-11-16_20h41.18.189,shortbabyloc,2023.2.2,59.85078720210812,
,,,,,,,,174.12996794100036,9,faces-13.jpg,AC,1,vpnl,2023-11-16_20h41.18.189,shortbabyloc,2023.2.2,59.85078720210812,
,,,,,,,,174.62875465401157,9,faces-14.jpg,AC,1,vpnl,2023-11-16_20h41.18.189,shortbabyloc,2023.2.2,59.85078720210812,
,,,,,,,,175.12816134300374,9,faces-15.jpg,AC,1,vpnl,2023-11-16_20h41.18.189,shortbabyloc,2023.2.2,59.85078720210812,
,,,,,,,,175.62828155999887,9,faces-16.jpg,AC,1,vpnl,2023-11-16_20h41.18.189,shortbabyloc,2023.2.2,59.85078720210812,
,,,,,,,,176.12832160200924,10,hands-9.jpg,AC,1,vpnl,2023-11-16_20h41.18.189,shortbabyloc,2023.2.2,59.85078720210812,
,,,,,,,,176.6281502100028,10,hands-10.jpg,AC,1,vpnl,2023-11-16_20h41.18.189,shortbabyloc,2023.2.2,59.85078720210812,
,,,,,,,,177.12812028900953,10,hands-11.jpg,AC,1,vpnl,2023-11-16_20h41.18.189,shortbabyloc,2023.2.2,59.85078720210812,
,,,,,,,,177.6278176800115,10,hands-12.jpg,AC,1,vpnl,2023-11-16_20h41.18.189,shortbabyloc,2023.2.2,59.85078720210812,
,,,,,,,,178.13115074200323,10,hands-13.jpg,AC,1,vpnl,2023-11-16_20h41.18.189,shortbabyloc,2023.2.2,59.85078720210812,
,,,,,,,,178.6295077810064,10,hands-14.jpg,AC,1,vpnl,2023-11-16_20h41.18.189,shortbabyloc,2023.2.2,59.85078720210812,
,,,,,,,,179.1296201100049,10,hands-15.jpg,AC,1,vpnl,2023-11-16_20h41.18.189,shortbabyloc,2023.2.2,59.85078720210812,
,,,,,,,,179.6301477710076,10,hands-16.jpg,AC,1,vpnl,2023-11-16_20h41.18.189,shortbabyloc,2023.2.2,59.85078720210812,
,,,,,,,,180.13066195700958,11,blank-17.jpg,AC,1,vpnl,2023-11-16_20h41.18.189,shortbabyloc,2023.2.2,59.85078720210812,
,,,,,,,,180.62980391801102,11,blank-18.jpg,AC,1,vpnl,2023-11-16_20h41.18.189,shortbabyloc,2023.2.2,59.85078720210812,
,,,,,,,,181.1293079419993,11,blank-19.jpg,AC,1,vpnl,2023-11-16_20h41.18.189,shortbabyloc,2023.2.2,59.85078720210812,
,,,,,,,,181.63012654900376,11,blank-20.jpg,AC,1,vpnl,2023-11-16_20h41.18.189,shortbabyloc,2023.2.2,59.85078720210812,
,,,,,,,,182.1311249959981,11,blank-21.jpg,AC,1,vpnl,2023-11-16_20h41.18.189,shortbabyloc,2023.2.2,59.85078720210812,
,,,,,,,,182.6301699750038,11,blank-22.jpg,AC,1,vpnl,2023-11-16_20h41.18.189,shortbabyloc,2023.2.2,59.85078720210812,
,,,,,,,,183.12981377300457,11,blank-23.jpg,AC,1,vpnl,2023-11-16_20h41.18.189,shortbabyloc,2023.2.2,59.85078720210812,
,,,,,,,,183.6286832600017,11,blank-24.jpg,AC,1,vpnl,2023-11-16_20h41.18.189,shortbabyloc,2023.2.2,59.85078720210812,
,,,,,,,,184.13012288500613,12,hands-17.jpg,AC,1,vpnl,2023-11-16_20h41.18.189,shortbabyloc,2023.2.2,59.85078720210812,
,,,,,,,,184.63044119700498,12,hands-18.jpg,AC,1,vpnl,2023-11-16_20h41.18.189,shortbabyloc,2023.2.2,59.85078720210812,
,,,,,,,,185.12929374600935,12,hands-19.jpg,AC,1,vpnl,2023-11-16_20h41.18.189,shortbabyloc,2023.2.2,59.85078720210812,
,,,,,,,,185.63029085200105,12,hands-20.jpg,AC,1,vpnl,2023-11-16_20h41.18.189,shortbabyloc,2023.2.2,59.85078720210812,
,,,,,,,,186.13020859799872,12,hands-21.jpg,AC,1,vpnl,2023-11-16_20h41.18.189,shortbabyloc,2023.2.2,59.85078720210812,
,,,,,,,,186.63023627000803,12,hands-22.jpg,AC,1,vpnl,2023-11-16_20h41.18.189,shortbabyloc,2023.2.2,59.85078720210812,
,,,,,,,,187.12956456599932,12,hands-23.jpg,AC,1,vpnl,2023-11-16_20h41.18.189,shortbabyloc,2023.2.2,59.85078720210812,
,,,,,,,,187.6298910530022,12,hands-24.jpg,AC,1,vpnl,2023-11-16_20h41.18.189,shortbabyloc,2023.2.2,59.85078720210812,
,,,,,,,,188.13025060700602,13,cars-17.jpg,AC,1,vpnl,2023-11-16_20h41.18.189,shortbabyloc,2023.2.2,59.85078720210812,
,,,,,,,,188.63001629601058,13,cars-18.jpg,AC,1,vpnl,2023-11-16_20h41.18.189,shortbabyloc,2023.2.2,59.85078720210812,
,,,,,,,,189.1292072780052,13,cars-19.jpg,AC,1,vpnl,2023-11-16_20h41.18.189,shortbabyloc,2023.2.2,59.85078720210812,
,,,,,,,,189.62905631000467,13,cars-20.jpg,AC,1,vpnl,2023-11-16_20h41.18.189,shortbabyloc,2023.2.2,59.85078720210812,
,,,,,,,,190.12809103399923,13,cars-21.jpg,AC,1,vpnl,2023-11-16_20h41.18.189,shortbabyloc,2023.2.2,59.85078720210812,
,,,,,,,,190.6297591850016,13,cars-22.jpg,AC,1,vpnl,2023-11-16_20h41.18.189,shortbabyloc,2023.2.2,59.85078720210812,
,,,,,,,,191.12999323700205,13,cars-23.jpg,AC,1,vpnl,2023-11-16_20h41.18.189,shortbabyloc,2023.2.2,59.85078720210812,
,,,,,,,,191.62984799299738,13,cars-24.jpg,AC,1,vpnl,2023-11-16_20h41.18.189,shortbabyloc,2023.2.2,59.85078720210812,
,,,,,,,,192.1301346750115,14,blank-25.jpg,AC,1,vpnl,2023-11-16_20h41.18.189,shortbabyloc,2023.2.2,59.85078720210812,
,,,,,,,,192.62964697800635,14,blank-26.jpg,AC,1,vpnl,2023-11-16_20h41.18.189,shortbabyloc,2023.2.2,59.85078720210812,
,,,,,,,,193.1294926249975,14,blank-27.jpg,AC,1,vpnl,2023-11-16_20h41.18.189,shortbabyloc,2023.2.2,59.85078720210812,
,,,,,,,,193.6297167550074,14,blank-28.jpg,AC,1,vpnl,2023-11-16_20h41.18.189,shortbabyloc,2023.2.2,59.85078720210812,
,,,,,,,,194.1301418820076,14,blank-29.jpg,AC,1,vpnl,2023-11-16_20h41.18.189,shortbabyloc,2023.2.2,59.85078720210812,
,,,,,,,,194.62994551799784,14,blank-30.jpg,AC,1,vpnl,2023-11-16_20h41.18.189,shortbabyloc,2023.2.2,59.85078720210812,
,,,,,,,,195.1300761330058,14,blank-31.jpg,AC,1,vpnl,2023-11-16_20h41.18.189,shortbabyloc,2023.2.2,59.85078720210812,
,,,,,,,,195.62940055200306,14,blank-32.jpg,AC,1,vpnl,2023-11-16_20h41.18.189,shortbabyloc,2023.2.2,59.85078720210812,
,,,,,,,,196.13065098501102,15,scenes-17.jpg,AC,1,vpnl,2023-11-16_20h41.18.189,shortbabyloc,2023.2.2,59.85078720210812,
,,,,,,,,196.62984783500724,15,scenes-18.jpg,AC,1,vpnl,2023-11-16_20h41.18.189,shortbabyloc,2023.2.2,59.85078720210812,
,,,,,,,,197.12956515800033,15,scenes-19.jpg,AC,1,vpnl,2023-11-16_20h41.18.189,shortbabyloc,2023.2.2,59.85078720210812,
,,,,,,,,197.63024139300978,15,scenes-20.jpg,AC,1,vpnl,2023-11-16_20h41.18.189,shortbabyloc,2023.2.2,59.85078720210812,
,,,,,,,,198.12928994800313,15,scenes-21.jpg,AC,1,vpnl,2023-11-16_20h41.18.189,shortbabyloc,2023.2.2,59.85078720210812,
,,,,,,,,198.62947627301037,15,scenes-22.jpg,AC,1,vpnl,2023-11-16_20h41.18.189,shortbabyloc,2023.2.2,59.85078720210812,
,,,,,,,,199.12985254199884,15,scenes-23.jpg,AC,1,vpnl,2023-11-16_20h41.18.189,shortbabyloc,2023.2.2,59.85078720210812,
,,,,,,,,199.6295938770054,15,scenes-24.jpg,AC,1,vpnl,2023-11-16_20h41.18.189,shortbabyloc,2023.2.2,59.85078720210812,
,,,,,,,,200.13053883799876,16,faces-17.jpg,AC,1,vpnl,2023-11-16_20h41.18.189,shortbabyloc,2023.2.2,59.85078720210812,
,,,,,,,,200.62997300901043,16,faces-18.jpg,AC,1,vpnl,2023-11-16_20h41.18.189,shortbabyloc,2023.2.2,59.85078720210812,
,,,,,,,,201.12806107700453,16,faces-19.jpg,AC,1,vpnl,2023-11-16_20h41.18.189,shortbabyloc,2023.2.2,59.85078720210812,
,,,,,,,,201.62814003700623,16,faces-20.jpg,AC,1,vpnl,2023-11-16_20h41.18.189,shortbabyloc,2023.2.2,59.85078720210812,
,,,,,,,,202.12791187901166,16,faces-21.jpg,AC,1,vpnl,2023-11-16_20h41.18.189,shortbabyloc,2023.2.2,59.85078720210812,
,,,,,,,,202.629881810004,16,faces-22.jpg,AC,1,vpnl,2023-11-16_20h41.18.189,shortbabyloc,2023.2.2,59.85078720210812,
,,,,,,,,203.1291463820089,16,faces-23.jpg,AC,1,vpnl,2023-11-16_20h41.18.189,shortbabyloc,2023.2.2,59.85078720210812,
,,,,,,,,203.62947446900944,16,faces-24.jpg,AC,1,vpnl,2023-11-16_20h41.18.189,shortbabyloc,2023.2.2,59.85078720210812,
,,,,,,,,204.1304018380033,17,cars-25.jpg,AC,1,vpnl,2023-11-16_20h41.18.189,shortbabyloc,2023.2.2,59.85078720210812,
,,,,,,,,204.62961467300192,17,cars-26.jpg,AC,1,vpnl,2023-11-16_20h41.18.189,shortbabyloc,2023.2.2,59.85078720210812,
,,,,,,,,205.12917559500784,17,cars-27.jpg,AC,1,vpnl,2023-11-16_20h41.18.189,shortbabyloc,2023.2.2,59.85078720210812,
,,,,,,,,205.62889525700302,17,cars-28.jpg,AC,1,vpnl,2023-11-16_20h41.18.189,shortbabyloc,2023.2.2,59.85078720210812,
,,,,,,,,206.12994501899811,17,cars-29.jpg,AC,1,vpnl,2023-11-16_20h41.18.189,shortbabyloc,2023.2.2,59.85078720210812,
,,,,,,,,206.62964768700476,17,cars-30.jpg,AC,1,vpnl,2023-11-16_20h41.18.189,shortbabyloc,2023.2.2,59.85078720210812,
,,,,,,,,207.12931244300853,17,cars-31.jpg,AC,1,vpnl,2023-11-16_20h41.18.189,shortbabyloc,2023.2.2,59.85078720210812,
,,,,,,,,207.62847301500733,17,cars-32.jpg,AC,1,vpnl,2023-11-16_20h41.18.189,shortbabyloc,2023.2.2,59.85078720210812,
,,,,,,,,208.1304158490093,18,scenes-25.jpg,AC,1,vpnl,2023-11-16_20h41.18.189,shortbabyloc,2023.2.2,59.85078720210812,
,,,,,,,,208.63009537600738,18,scenes-26.jpg,AC,1,vpnl,2023-11-16_20h41.18.189,shortbabyloc,2023.2.2,59.85078720210812,
,,,,,,,,209.12865991600847,18,scenes-27.jpg,AC,1,vpnl,2023-11-16_20h41.18.189,shortbabyloc,2023.2.2,59.85078720210812,
,,,,,,,,209.62988299100834,18,scenes-28.jpg,AC,1,vpnl,2023-11-16_20h41.18.189,shortbabyloc,2023.2.2,59.85078720210812,
,,,,,,,,210.13029530399945,18,scenes-29.jpg,AC,1,vpnl,2023-11-16_20h41.18.189,shortbabyloc,2023.2.2,59.85078720210812,
,,,,,,,,210.63002135499846,18,scenes-30.jpg,AC,1,vpnl,2023-11-16_20h41.18.189,shortbabyloc,2023.2.2,59.85078720210812,
,,,,,,,,211.12976628199976,18,scenes-31.jpg,AC,1,vpnl,2023-11-16_20h41.18.189,shortbabyloc,2023.2.2,59.85078720210812,
,,,,,,,,211.6297405689984,18,scenes-32.jpg,AC,1,vpnl,2023-11-16_20h41.18.189,shortbabyloc,2023.2.2,59.85078720210812,
,,,,,,,,212.13068528100848,19,hands-25.jpg,AC,1,vpnl,2023-11-16_20h41.18.189,shortbabyloc,2023.2.2,59.85078720210812,
,,,,,,,,212.62963757901161,19,hands-26.jpg,AC,1,vpnl,2023-11-16_20h41.18.189,shortbabyloc,2023.2.2,59.85078720210812,
,,,,,,,,213.12919514000532,19,hands-27.jpg,AC,1,vpnl,2023-11-16_20h41.18.189,shortbabyloc,2023.2.2,59.85078720210812,
,,,,,,,,213.6299358820106,19,hands-28.jpg,AC,1,vpnl,2023-11-16_20h41.18.189,shortbabyloc,2023.2.2,59.85078720210812,
,,,,,,,,214.1305651260045,19,hands-29.jpg,AC,1,vpnl,2023-11-16_20h41.18.189,shortbabyloc,2023.2.2,59.85078720210812,
,,,,,,,,214.62966641499952,19,hands-30.jpg,AC,1,vpnl,2023-11-16_20h41.18.189,shortbabyloc,2023.2.2,59.85078720210812,
,,,,,,,,215.13004018100037,19,hands-31.jpg,AC,1,vpnl,2023-11-16_20h41.18.189,shortbabyloc,2023.2.2,59.85078720210812,
,,,,,,,,215.6297043920058,19,hands-32.jpg,AC,1,vpnl,2023-11-16_20h41.18.189,shortbabyloc,2023.2.2,59.85078720210812,
,,,,,,,,216.13016225400497,20,blank-33.jpg,AC,1,vpnl,2023-11-16_20h41.18.189,shortbabyloc,2023.2.2,59.85078720210812,
,,,,,,,,216.62958581800922,20,blank-34.jpg,AC,1,vpnl,2023-11-16_20h41.18.189,shortbabyloc,2023.2.2,59.85078720210812,
,,,,,,,,217.12975256799837,20,blank-35.jpg,AC,1,vpnl,2023-11-16_20h41.18.189,shortbabyloc,2023.2.2,59.85078720210812,
,,,,,,,,217.62697860400658,20,blank-36.jpg,AC,1,vpnl,2023-11-16_20h41.18.189,shortbabyloc,2023.2.2,59.85078720210812,
,,,,,,,,218.12992133900116,20,blank-37.jpg,AC,1,vpnl,2023-11-16_20h41.18.189,shortbabyloc,2023.2.2,59.85078720210812,
,,,,,,,,218.62916479900014,20,blank-38.jpg,AC,1,vpnl,2023-11-16_20h41.18.189,shortbabyloc,2023.2.2,59.85078720210812,
,,,,,,,,219.12864636300947,20,blank-39.jpg,AC,1,vpnl,2023-11-16_20h41.18.189,shortbabyloc,2023.2.2,59.85078720210812,
,,,,,,,,219.62925228801032,20,blank-40.jpg,AC,1,vpnl,2023-11-16_20h41.18.189,shortbabyloc,2023.2.2,59.85078720210812,
,,,,,,,,220.12748963100603,21,faces-25.jpg,AC,1,vpnl,2023-11-16_20h41.18.189,shortbabyloc,2023.2.2,59.85078720210812,
,,,,,,,,220.62888203799957,21,faces-26.jpg,AC,1,vpnl,2023-11-16_20h41.18.189,shortbabyloc,2023.2.2,59.85078720210812,
,,,,,,,,221.12881620200642,21,faces-27.jpg,AC,1,vpnl,2023-11-16_20h41.18.189,shortbabyloc,2023.2.2,59.85078720210812,
,,,,,,,,221.62874773300427,21,faces-28.jpg,AC,1,vpnl,2023-11-16_20h41.18.189,shortbabyloc,2023.2.2,59.85078720210812,
,,,,,,,,222.12992789399868,21,faces-29.jpg,AC,1,vpnl,2023-11-16_20h41.18.189,shortbabyloc,2023.2.2,59.85078720210812,
,,,,,,,,222.62958673499816,21,faces-30.jpg,AC,1,vpnl,2023-11-16_20h41.18.189,shortbabyloc,2023.2.2,59.85078720210812,
,,,,,,,,223.12756588999764,21,faces-31.jpg,AC,1,vpnl,2023-11-16_20h41.18.189,shortbabyloc,2023.2.2,59.85078720210812,
,,,,,,,,223.6302937700093,21,faces-32.jpg,AC,1,vpnl,2023-11-16_20h41.18.189,shortbabyloc,2023.2.2,59.85078720210812,
,,,,,,,,224.13061569200363,22,blank-41.jpg,AC,1,vpnl,2023-11-16_20h41.18.189,shortbabyloc,2023.2.2,59.85078720210812,
,,,,,,,,224.6293495620048,22,blank-42.jpg,AC,1,vpnl,2023-11-16_20h41.18.189,shortbabyloc,2023.2.2,59.85078720210812,
,,,,,,,,225.12946235900745,22,blank-43.jpg,AC,1,vpnl,2023-11-16_20h41.18.189,shortbabyloc,2023.2.2,59.85078720210812,
,,,,,,,,225.62882216500293,22,blank-44.jpg,AC,1,vpnl,2023-11-16_20h41.18.189,shortbabyloc,2023.2.2,59.85078720210812,
,,,,,,,,226.12757003500883,22,blank-45.jpg,AC,1,vpnl,2023-11-16_20h41.18.189,shortbabyloc,2023.2.2,59.85078720210812,
,,,,,,,,226.630134705003,22,blank-46.jpg,AC,1,vpnl,2023-11-16_20h41.18.189,shortbabyloc,2023.2.2,59.85078720210812,
,,,,,,,,227.13015456900757,22,blank-47.jpg,AC,1,vpnl,2023-11-16_20h41.18.189,shortbabyloc,2023.2.2,59.85078720210812,
,,,,,,,,227.62931222900806,22,blank-48.jpg,AC,1,vpnl,2023-11-16_20h41.18.189,shortbabyloc,2023.2.2,59.85078720210812,
