thisRow.t,notes,waiting_for_trigger_text.started,trigger.started,trigger.keys,trigger.rt,countdown.started,trial.stopped,stimuli.started,condition,stim_name,participant,run,user,date,expName,psychopyVersion,frameRate,
,,244.2507253560034,244.2507253560034,t,37.33338532499329,,,,,,AC,1,vpnl,2023-11-16_20h41.18.189,shortbabyloc,2023.2.2,59.85078720210812,
,,,,,,281.6120845920086,43.371333314993535,287.6275496830058,1,blank-33.jpg,AC,1,vpnl,2023-11-16_20h41.18.189,shortbabyloc,2023.2.2,59.85078720210812,
,,,,,,,,288.12612432500464,1,blank-34.jpg,AC,1,vpnl,2023-11-16_20h41.18.189,shortbabyloc,2023.2.2,59.85078720210812,
,,,,,,,,288.62651931001164,1,blank-35.jpg,AC,1,vpnl,2023-11-16_20h41.18.189,shortbabyloc,2023.2.2,59.85078720210812,
,,,,,,,,289.12823245700565,1,blank-36.jpg,AC,1,vpnl,2023-11-16_20h41.18.189,shortbabyloc,2023.2.2,59.85078720210812,
,,,,,,,,289.6272452340054,1,blank-37.jpg,AC,1,vpnl,2023-11-16_20h41.18.189,shortbabyloc,2023.2.2,59.85078720210812,
,,,,,,,,290.12862798100105,1,blank-38.jpg,AC,1,vpnl,2023-11-16_20h41.18.189,shortbabyloc,2023.2.2,59.85078720210812,
,,,,,,,,290.6269159020012,1,blank-39.jpg,AC,1,vpnl,2023-11-16_20h41.18.189,shortbabyloc,2023.2.2,59.85078720210812,
,,,,,,,,291.12794903900067,1,blank-40.jpg,AC,1,vpnl,2023-11-16_20h41.18.189,shortbabyloc,2023.2.2,59.85078720210812,
,,,,,,,,291.62820156500675,2,cars-33.jpg,AC,1,vpnl,2023-11-16_20h41.18.189,shortbabyloc,2023.2.2,59.85078720210812,
,,,,,,,,292.12811994900403,2,cars-34.jpg,AC,1,vpnl,2023-11-16_20h41.18.189,shortbabyloc,2023.2.2,59.85078720210812,
,,,,,,,,292.6283427430026,2,cars-35.jpg,AC,1,vpnl,2023-11-16_20h41.18.189,shortbabyloc,2023.2.2,59.85078720210812,
,,,,,,,,293.1269789900107,2,cars-36.jpg,AC,1,vpnl,2023-11-16_20h41.18.189,shortbabyloc,2023.2.2,59.85078720210812,
,,,,,,,,293.6267586550093,2,cars-37.jpg,AC,1,vpnl,2023-11-16_20h41.18.189,shortbabyloc,2023.2.2,59.85078720210812,
,,,,,,,,294.1276421259972,2,cars-38.jpg,AC,1,vpnl,2023-11-16_20h41.18.189,shortbabyloc,2023.2.2,59.85078720210812,
,,,,,,,,294.62801433399727,2,cars-39.jpg,AC,1,vpnl,2023-11-16_20h41.18.189,shortbabyloc,2023.2.2,59.85078720210812,
,,,,,,,,295.12811021800735,2,cars-40.jpg,AC,1,vpnl,2023-11-16_20h41.18.189,shortbabyloc,2023.2.2,59.85078720210812,
,,,,,,,,295.6279680430016,3,hands-33.jpg,AC,1,vpnl,2023-11-16_20h41.18.189,shortbabyloc,2023.2.2,59.85078720210812,
,,,,,,,,296.1275892590056,3,hands-34.jpg,AC,1,vpnl,2023-11-16_20h41.18.189,shortbabyloc,2023.2.2,59.85078720210812,
,,,,,,,,296.6267218330031,3,hands-35.jpg,AC,1,vpnl,2023-11-16_20h41.18.189,shortbabyloc,2023.2.2,59.85078720210812,
,,,,,,,,297.128539302008,3,hands-36.jpg,AC,1,vpnl,2023-11-16_20h41.18.189,shortbabyloc,2023.2.2,59.85078720210812,
,,,,,,,,297.6287535750016,3,hands-37.jpg,AC,1,vpnl,2023-11-16_20h41.18.189,shortbabyloc,2023.2.2,59.85078720210812,
,,,,,,,,298.12777288100915,3,hands-38.jpg,AC,1,vpnl,2023-11-16_20h41.18.189,shortbabyloc,2023.2.2,59.85078720210812,
,,,,,,,,298.6298474810028,3,hands-39.jpg,AC,1,vpnl,2023-11-16_20h41.18.189,shortbabyloc,2023.2.2,59.85078720210812,
,,,,,,,,299.1285280910088,3,hands-40.jpg,AC,1,vpnl,2023-11-16_20h41.18.189,shortbabyloc,2023.2.2,59.85078720210812,
,,,,,,,,299.62662611300766,4,scenes-33.jpg,AC,1,vpnl,2023-11-16_20h41.18.189,shortbabyloc,2023.2.2,59.85078720210812,
,,,,,,,,300.1262185860105,4,scenes-34.jpg,AC,1,vpnl,2023-11-16_20h41.18.189,shortbabyloc,2023.2.2,59.85078720210812,
,,,,,,,,300.6276747660013,4,scenes-35.jpg,AC,1,vpnl,2023-11-16_20h41.18.189,shortbabyloc,2023.2.2,59.85078720210812,
,,,,,,,,301.1281875660061,4,scenes-36.jpg,AC,1,vpnl,2023-11-16_20h41.18.189,shortbabyloc,2023.2.2,59.85078720210812,
,,,,,,,,301.6264466980065,4,scenes-37.jpg,AC,1,vpnl,2023-11-16_20h41.18.189,shortbabyloc,2023.2.2,59.85078720210812,
,,,,,,,,302.12813950800046,4,scenes-38.jpg,AC,1,vpnl,2023-11-16_20h41.18.189,shortbabyloc,2023.2.2,59.85078720210812,
,,,,,,,,302.62733477599977,4,scenes-39.jpg,AC,1,vpnl,2023-11-16_20h41.18.189,shortbabyloc,2023.2.2,59.85078720210812,
,,,,,,,,303.1269941060018,4,scenes-40.jpg,AC,1,vpnl,2023-11-16_20h41.18.189,shortbabyloc,2023.2.2,59.85078720210812,
,,,,,,,,303.6283300960058,5,blank-41.jpg,AC,1,vpnl,2023-11-16_20h41.18.189,shortbabyloc,2023.2.2,59.85078720210812,
,,,,,,,,304.1278170250007,5,blank-42.jpg,AC,1,vpnl,2023-11-16_20h41.18.189,shortbabyloc,2023.2.2,59.85078720210812,
,,,,,,,,304.626483732005,5,blank-43.jpg,AC,1,vpnl,2023-11-16_20h41.18.189,shortbabyloc,2023.2.2,59.85078720210812,
,,,,,,,,305.12774077500217,5,blank-44.jpg,AC,1,vpnl,2023-11-16_20h41.18.189,shortbabyloc,2023.2.2,59.85078720210812,
,,,,,,,,305.6275534870074,5,blank-45.jpg,AC,1,vpnl,2023-11-16_20h41.18.189,shortbabyloc,2023.2.2,59.85078720210812,
,,,,,,,,306.127933434007,5,blank-46.jpg,AC,1,vpnl,2023-11-16_20h41.18.189,shortbabyloc,2023.2.2,59.85078720210812,
,,,,,,,,306.6262885629985,5,blank-47.jpg,AC,1,vpnl,2023-11-16_20h41.18.189,shortbabyloc,2023.2.2,59.85078720210812,
,,,,,,,,307.13830468700326,5,blank-48.jpg,AC,1,vpnl,2023-11-16_20h41.18.189,shortbabyloc,2023.2.2,59.85078720210812,
,,,,,,,,307.62698493800417,6,faces-33.jpg,AC,1,vpnl,2023-11-16_20h41.18.189,shortbabyloc,2023.2.2,59.85078720210812,
,,,,,,,,308.1272971150029,6,faces-34.jpg,AC,1,vpnl,2023-11-16_20h41.18.189,shortbabyloc,2023.2.2,59.85078720210812,
,,,,,,,,308.62757056100236,6,faces-35.jpg,AC,1,vpnl,2023-11-16_20h41.18.189,shortbabyloc,2023.2.2,59.85078720210812,
,,,,,,,,309.1262568050006,6,faces-36.jpg,AC,1,vpnl,2023-11-16_20h41.18.189,shortbabyloc,2023.2.2,59.85078720210812,
,,,,,,,,309.6274563550105,6,faces-37.jpg,AC,1,vpnl,2023-11-16_20h41.18.189,shortbabyloc,2023.2.2,59.85078720210812,
,,,,,,,,310.1276942149998,6,faces-38.jpg,AC,1,vpnl,2023-11-16_20h41.18.189,shortbabyloc,2023.2.2,59.85078720210812,
,,,,,,,,310.62738072199863,6,faces-39.jpg,AC,1,vpnl,2023-11-16_20h41.18.189,shortbabyloc,2023.2.2,59.85078720210812,
,,,,,,,,311.12704997901164,6,faces-40.jpg,AC,1,vpnl,2023-11-16_20h41.18.189,shortbabyloc,2023.2.2,59.85078720210812,
,,,,,,,,311.6264802009973,7,blank-49.jpg,AC,1,vpnl,2023-11-16_20h41.18.189,shortbabyloc,2023.2.2,59.85078720210812,
,,,,,,,,312.12808354799927,7,blank-50.jpg,AC,1,vpnl,2023-11-16_20h41.18.189,shortbabyloc,2023.2.2,59.85078720210812,
,,,,,,,,312.62828542701027,7,blank-51.jpg,AC,1,vpnl,2023-11-16_20h41.18.189,shortbabyloc,2023.2.2,59.85078720210812,
,,,,,,,,313.12793814700854,7,blank-52.jpg,AC,1,vpnl,2023-11-16_20h41.18.189,shortbabyloc,2023.2.2,59.85078720210812,
,,,,,,,,313.626449280011,7,blank-53.jpg,AC,1,vpnl,2023-11-16_20h41.18.189,shortbabyloc,2023.2.2,59.85078720210812,
,,,,,,,,314.12584659000277,7,blank-54.jpg,AC,1,vpnl,2023-11-16_20h41.18.189,shortbabyloc,2023.2.2,59.85078720210812,
,,,,,,,,314.6259234989993,7,blank-55.jpg,AC,1,vpnl,2023-11-16_20h41.18.189,shortbabyloc,2023.2.2,59.85078720210812,
,,,,,,,,315.12791658400965,7,blank-56.jpg,AC,1,vpnl,2023-11-16_20h41.18.189,shortbabyloc,2023.2.2,59.85078720210812,
,,,,,,,,315.6264861780073,8,hands-41.jpg,AC,1,vpnl,2023-11-16_20h41.18.189,shortbabyloc,2023.2.2,59.85078720210812,
,,,,,,,,316.12707372099976,8,hands-42.jpg,AC,1,vpnl,2023-11-16_20h41.18.189,shortbabyloc,2023.2.2,59.85078720210812,
,,,,,,,,316.62763624500076,8,hands-43.jpg,AC,1,vpnl,2023-11-16_20h41.18.189,shortbabyloc,2023.2.2,59.85078720210812,
,,,,,,,,317.1278619210061,8,hands-44.jpg,AC,1,vpnl,2023-11-16_20h41.18.189,shortbabyloc,2023.2.2,59.85078720210812,
,,,,,,,,317.6266669410106,8,hands-45.jpg,AC,1,vpnl,2023-11-16_20h41.18.189,shortbabyloc,2023.2.2,59.85078720210812,
,,,,,,,,318.1272404170013,8,hands-46.jpg,AC,1,vpnl,2023-11-16_20h41.18.189,shortbabyloc,2023.2.2,59.85078720210812,
,,,,,,,,318.62778536100814,8,hands-47.jpg,AC,1,vpnl,2023-11-16_20h41.18.189,shortbabyloc,2023.2.2,59.85078720210812,
,,,,,,,,319.1276919570082,8,hands-48.jpg,AC,1,vpnl,2023-11-16_20h41.18.189,shortbabyloc,2023.2.2,59.85078720210812,
,,,,,,,,319.6262643200025,9,scenes-41.jpg,AC,1,vpnl,2023-11-16_20h41.18.189,shortbabyloc,2023.2.2,59.85078720210812,
,,,,,,,,320.12736005100305,9,scenes-42.jpg,AC,1,vpnl,2023-11-16_20h41.18.189,shortbabyloc,2023.2.2,59.85078720210812,
,,,,,,,,320.62760922600864,9,scenes-43.jpg,AC,1,vpnl,2023-11-16_20h41.18.189,shortbabyloc,2023.2.2,59.85078720210812,
,,,,,,,,321.1274567920045,9,scenes-44.jpg,AC,1,vpnl,2023-11-16_20h41.18.189,shortbabyloc,2023.2.2,59.85078720210812,
,,,,,,,,321.6332937940024,9,scenes-45.jpg,AC,1,vpnl,2023-11-16_20h41.18.189,shortbabyloc,2023.2.2,59.85078720210812,
,,,,,,,,322.1250719870004,9,scenes-46.jpg,AC,1,vpnl,2023-11-16_20h41.18.189,shortbabyloc,2023.2.2,59.85078720210812,
,,,,,,,,322.6278240440006,9,scenes-47.jpg,AC,1,vpnl,2023-11-16_20h41.18.189,shortbabyloc,2023.2.2,59.85078720210812,
,,,,,,,,323.1272445140057,9,scenes-48.jpg,AC,1,vpnl,2023-11-16_20h41.18.189,shortbabyloc,2023.2.2,59.85078720210812,
,,,,,,,,323.62959453000803,10,faces-41.jpg,AC,1,vpnl,2023-11-16_20h41.18.189,shortbabyloc,2023.2.2,59.85078720210812,
,,,,,,,,324.12495902201044,10,faces-42.jpg,AC,1,vpnl,2023-11-16_20h41.18.189,shortbabyloc,2023.2.2,59.85078720210812,
,,,,,,,,324.6270696110005,10,faces-43.jpg,AC,1,vpnl,2023-11-16_20h41.18.189,shortbabyloc,2023.2.2,59.85078720210812,
,,,,,,,,325.12576701700164,10,faces-44.jpg,AC,1,vpnl,2023-11-16_20h41.18.189,shortbabyloc,2023.2.2,59.85078720210812,
,,,,,,,,325.62588353600586,10,faces-45.jpg,AC,1,vpnl,2023-11-16_20h41.18.189,shortbabyloc,2023.2.2,59.85078720210812,
,,,,,,,,326.12495886599936,10,faces-46.jpg,AC,1,vpnl,2023-11-16_20h41.18.189,shortbabyloc,2023.2.2,59.85078720210812,
,,,,,,,,326.62580292001076,10,faces-47.jpg,AC,1,vpnl,2023-11-16_20h41.18.189,shortbabyloc,2023.2.2,59.85078720210812,
,,,,,,,,327.12696461701125,10,faces-48.jpg,AC,1,vpnl,2023-11-16_20h41.18.189,shortbabyloc,2023.2.2,59.85078720210812,
,,,,,,,,327.6263780760055,11,cars-41.jpg,AC,1,vpnl,2023-11-16_20h41.18.189,shortbabyloc,2023.2.2,59.85078720210812,
,,,,,,,,328.12608803900366,11,cars-42.jpg,AC,1,vpnl,2023-11-16_20h41.18.189,shortbabyloc,2023.2.2,59.85078720210812,
,,,,,,,,328.6272279570112,11,cars-43.jpg,AC,1,vpnl,2023-11-16_20h41.18.189,shortbabyloc,2023.2.2,59.85078720210812,
,,,,,,,,329.1260814630077,11,cars-44.jpg,AC,1,vpnl,2023-11-16_20h41.18.189,shortbabyloc,2023.2.2,59.85078720210812,
,,,,,,,,329.62629419000586,11,cars-45.jpg,AC,1,vpnl,2023-11-16_20h41.18.189,shortbabyloc,2023.2.2,59.85078720210812,
,,,,,,,,330.1259864070016,11,cars-46.jpg,AC,1,vpnl,2023-11-16_20h41.18.189,shortbabyloc,2023.2.2,59.85078720210812,
,,,,,,,,330.6278488789976,11,cars-47.jpg,AC,1,vpnl,2023-11-16_20h41.18.189,shortbabyloc,2023.2.2,59.85078720210812,
,,,,,,,,331.1278031929978,11,cars-48.jpg,AC,1,vpnl,2023-11-16_20h41.18.189,shortbabyloc,2023.2.2,59.85078720210812,
,,,,,,,,331.62712094100425,12,blank-57.jpg,AC,1,vpnl,2023-11-16_20h41.18.189,shortbabyloc,2023.2.2,59.85078720210812,
,,,,,,,,332.1260396130092,12,blank-58.jpg,AC,1,vpnl,2023-11-16_20h41.18.189,shortbabyloc,2023.2.2,59.85078720210812,
,,,,,,,,332.6269570200093,12,blank-59.jpg,AC,1,vpnl,2023-11-16_20h41.18.189,shortbabyloc,2023.2.2,59.85078720210812,
,,,,,,,,333.12743077700725,12,blank-60.jpg,AC,1,vpnl,2023-11-16_20h41.18.189,shortbabyloc,2023.2.2,59.85078720210812,
,,,,,,,,333.6274182210036,12,blank-61.jpg,AC,1,vpnl,2023-11-16_20h41.18.189,shortbabyloc,2023.2.2,59.85078720210812,
,,,,,,,,334.12589934200514,12,blank-62.jpg,AC,1,vpnl,2023-11-16_20h41.18.189,shortbabyloc,2023.2.2,59.85078720210812,
,,,,,,,,334.62744827001006,12,blank-63.jpg,AC,1,vpnl,2023-11-16_20h41.18.189,shortbabyloc,2023.2.2,59.85078720210812,
,,,,,,,,335.1273189150088,12,blank-64.jpg,AC,1,vpnl,2023-11-16_20h41.18.189,shortbabyloc,2023.2.2,59.85078720210812,
,,,,,,,,335.6289300490025,13,scenes-49.jpg,AC,1,vpnl,2023-11-16_20h41.18.189,shortbabyloc,2023.2.2,59.85078720210812,
,,,,,,,,336.12476715201046,13,scenes-50.jpg,AC,1,vpnl,2023-11-16_20h41.18.189,shortbabyloc,2023.2.2,59.85078720210812,
,,,,,,,,336.62744694700814,13,scenes-51.jpg,AC,1,vpnl,2023-11-16_20h41.18.189,shortbabyloc,2023.2.2,59.85078720210812,
,,,,,,,,337.12724501900084,13,scenes-52.jpg,AC,1,vpnl,2023-11-16_20h41.18.189,shortbabyloc,2023.2.2,59.85078720210812,
,,,,,,,,337.62655914800416,13,scenes-53.jpg,AC,1,vpnl,2023-11-16_20h41.18.189,shortbabyloc,2023.2.2,59.85078720210812,
,,,,,,,,338.125542313006,13,scenes-54.jpg,AC,1,vpnl,2023-11-16_20h41.18.189,shortbabyloc,2023.2.2,59.85078720210812,
,,,,,,,,338.6257221749984,13,scenes-55.jpg,AC,1,vpnl,2023-11-16_20h41.18.189,shortbabyloc,2023.2.2,59.85078720210812,
,,,,,,,,339.1273248130019,13,scenes-56.jpg,AC,1,vpnl,2023-11-16_20h41.18.189,shortbabyloc,2023.2.2,59.85078720210812,
,,,,,,,,339.63244289701106,14,faces-49.jpg,AC,1,vpnl,2023-11-16_20h41.18.189,shortbabyloc,2023.2.2,59.85078720210812,
,,,,,,,,340.12501794799755,14,faces-50.jpg,AC,1,vpnl,2023-11-16_20h41.18.189,shortbabyloc,2023.2.2,59.85078720210812,
,,,,,,,,340.6255160360015,14,faces-51.jpg,AC,1,vpnl,2023-11-16_20h41.18.189,shortbabyloc,2023.2.2,59.85078720210812,
,,,,,,,,341.1256559280009,14,faces-52.jpg,AC,1,vpnl,2023-11-16_20h41.18.189,shortbabyloc,2023.2.2,59.85078720210812,
,,,,,,,,341.62601286399877,14,faces-53.jpg,AC,1,vpnl,2023-11-16_20h41.18.189,shortbabyloc,2023.2.2,59.85078720210812,
,,,,,,,,342.1270127030002,14,faces-54.jpg,AC,1,vpnl,2023-11-16_20h41.18.189,shortbabyloc,2023.2.2,59.85078720210812,
,,,,,,,,342.6257077580085,14,faces-55.jpg,AC,1,vpnl,2023-11-16_20h41.18.189,shortbabyloc,2023.2.2,59.85078720210812,
,,,,,,,,343.1251486340043,14,faces-56.jpg,AC,1,vpnl,2023-11-16_20h41.18.189,shortbabyloc,2023.2.2,59.85078720210812,
,,,,,,,,343.62452909701096,15,cars-49.jpg,AC,1,vpnl,2023-11-16_20h41.18.189,shortbabyloc,2023.2.2,59.85078720210812,
,,,,,,,,344.12540983800136,15,cars-50.jpg,AC,1,vpnl,2023-11-16_20h41.18.189,shortbabyloc,2023.2.2,59.85078720210812,
,,,,,,,,344.62716241199814,15,cars-51.jpg,AC,1,vpnl,2023-11-16_20h41.18.189,shortbabyloc,2023.2.2,59.85078720210812,
,,,,,,,,345.12667485199927,15,cars-52.jpg,AC,1,vpnl,2023-11-16_20h41.18.189,shortbabyloc,2023.2.2,59.85078720210812,
,,,,,,,,345.6257332170062,15,cars-53.jpg,AC,1,vpnl,2023-11-16_20h41.18.189,shortbabyloc,2023.2.2,59.85078720210812,
,,,,,,,,346.12529003599775,15,cars-54.jpg,AC,1,vpnl,2023-11-16_20h41.18.189,shortbabyloc,2023.2.2,59.85078720210812,
,,,,,,,,346.62674136100395,15,cars-55.jpg,AC,1,vpnl,2023-11-16_20h41.18.189,shortbabyloc,2023.2.2,59.85078720210812,
,,,,,,,,347.12688118300866,15,cars-56.jpg,AC,1,vpnl,2023-11-16_20h41.18.189,shortbabyloc,2023.2.2,59.85078720210812,
,,,,,,,,347.6256757980009,16,hands-49.jpg,AC,1,vpnl,2023-11-16_20h41.18.189,shortbabyloc,2023.2.2,59.85078720210812,
,,,,,,,,348.125878774008,16,hands-50.jpg,AC,1,vpnl,2023-11-16_20h41.18.189,shortbabyloc,2023.2.2,59.85078720210812,
,,,,,,,,348.6272147710115,16,hands-51.jpg,AC,1,vpnl,2023-11-16_20h41.18.189,shortbabyloc,2023.2.2,59.85078720210812,
,,,,,,,,349.1253528160014,16,hands-52.jpg,AC,1,vpnl,2023-11-16_20h41.18.189,shortbabyloc,2023.2.2,59.85078720210812,
,,,,,,,,349.6255785100075,16,hands-53.jpg,AC,1,vpnl,2023-11-16_20h41.18.189,shortbabyloc,2023.2.2,59.85078720210812,
,,,,,,,,350.12530200299807,16,hands-54.jpg,AC,1,vpnl,2023-11-16_20h41.18.189,shortbabyloc,2023.2.2,59.85078720210812,
,,,,,,,,350.6251932060113,16,hands-55.jpg,AC,1,vpnl,2023-11-16_20h41.18.189,shortbabyloc,2023.2.2,59.85078720210812,
,,,,,,,,351.1252135399991,16,hands-56.jpg,AC,1,vpnl,2023-11-16_20h41.18.189,shortbabyloc,2023.2.2,59.85078720210812,
,,,,,,,,351.6244750199985,17,blank-65.jpg,AC,1,vpnl,2023-11-16_20h41.18.189,shortbabyloc,2023.2.2,59.85078720210812,
,,,,,,,,352.12513887700334,17,blank-66.jpg,AC,1,vpnl,2023-11-16_20h41.18.189,shortbabyloc,2023.2.2,59.85078720210812,
,,,,,,,,352.6251888370025,17,blank-67.jpg,AC,1,vpnl,2023-11-16_20h41.18.189,shortbabyloc,2023.2.2,59.85078720210812,
,,,,,,,,353.12489857600303,17,blank-68.jpg,AC,1,vpnl,2023-11-16_20h41.18.189,shortbabyloc,2023.2.2,59.85078720210812,
,,,,,,,,353.62438012599887,17,blank-69.jpg,AC,1,vpnl,2023-11-16_20h41.18.189,shortbabyloc,2023.2.2,59.85078720210812,
,,,,,,,,354.1251879269985,17,blank-70.jpg,AC,1,vpnl,2023-11-16_20h41.18.189,shortbabyloc,2023.2.2,59.85078720210812,
,,,,,,,,354.6252336769976,17,blank-71.jpg,AC,1,vpnl,2023-11-16_20h41.18.189,shortbabyloc,2023.2.2,59.85078720210812,
,,,,,,,,355.12658002100943,17,blank-72.jpg,AC,1,vpnl,2023-11-16_20h41.18.189,shortbabyloc,2023.2.2,59.85078720210812,
,,,,,,,,355.6255090600025,18,scenes-57.jpg,AC,1,vpnl,2023-11-16_20h41.18.189,shortbabyloc,2023.2.2,59.85078720210812,
,,,,,,,,356.12662065200857,18,scenes-58.jpg,AC,1,vpnl,2023-11-16_20h41.18.189,shortbabyloc,2023.2.2,59.85078720210812,
,,,,,,,,356.62674632199924,18,scenes-59.jpg,AC,1,vpnl,2023-11-16_20h41.18.189,shortbabyloc,2023.2.2,59.85078720210812,
,,,,,,,,357.1107493080053,18,scenes-60.jpg,AC,1,vpnl,2023-11-16_20h41.18.189,shortbabyloc,2023.2.2,59.85078720210812,
,,,,,,,,357.62541246099863,18,scenes-61.jpg,AC,1,vpnl,2023-11-16_20h41.18.189,shortbabyloc,2023.2.2,59.85078720210812,
,,,,,,,,358.12489254400134,18,scenes-62.jpg,AC,1,vpnl,2023-11-16_20h41.18.189,shortbabyloc,2023.2.2,59.85078720210812,
,,,,,,,,358.6271835840016,18,scenes-63.jpg,AC,1,vpnl,2023-11-16_20h41.18.189,shortbabyloc,2023.2.2,59.85078720210812,
,,,,,,,,359.12796197499847,18,scenes-64.jpg,AC,1,vpnl,2023-11-16_20h41.18.189,shortbabyloc,2023.2.2,59.85078720210812,
,,,,,,,,359.6254087630077,19,hands-57.jpg,AC,1,vpnl,2023-11-16_20h41.18.189,shortbabyloc,2023.2.2,59.85078720210812,
,,,,,,,,360.1248840059998,19,hands-58.jpg,AC,1,vpnl,2023-11-16_20h41.18.189,shortbabyloc,2023.2.2,59.85078720210812,
,,,,,,,,360.6250911070092,19,hands-59.jpg,AC,1,vpnl,2023-11-16_20h41.18.189,shortbabyloc,2023.2.2,59.85078720210812,
,,,,,,,,361.127069670998,19,hands-60.jpg,AC,1,vpnl,2023-11-16_20h41.18.189,shortbabyloc,2023.2.2,59.85078720210812,
,,,,,,,,361.62550237899995,19,hands-61.jpg,AC,1,vpnl,2023-11-16_20h41.18.189,shortbabyloc,2023.2.2,59.85078720210812,
,,,,,,,,362.1252128339984,19,hands-62.jpg,AC,1,vpnl,2023-11-16_20h41.18.189,shortbabyloc,2023.2.2,59.85078720210812,
,,,,,,,,362.6251020519994,19,hands-63.jpg,AC,1,vpnl,2023-11-16_20h41.18.189,shortbabyloc,2023.2.2,59.85078720210812,
,,,,,,,,363.1243230789987,19,hands-64.jpg,AC,1,vpnl,2023-11-16_20h41.18.189,shortbabyloc,2023.2.2,59.85078720210812,
,,,,,,,,363.62529294300475,20,cars-57.jpg,AC,1,vpnl,2023-11-16_20h41.18.189,shortbabyloc,2023.2.2,59.85078720210812,
,,,,,,,,364.12681895399874,20,cars-58.jpg,AC,1,vpnl,2023-11-16_20h41.18.189,shortbabyloc,2023.2.2,59.85078720210812,
,,,,,,,,364.62477175401,20,cars-59.jpg,AC,1,vpnl,2023-11-16_20h41.18.189,shortbabyloc,2023.2.2,59.85078720210812,
,,,,,,,,365.1260327409982,20,cars-60.jpg,AC,1,vpnl,2023-11-16_20h41.18.189,shortbabyloc,2023.2.2,59.85078720210812,
,,,,,,,,365.62532748100057,20,cars-61.jpg,AC,1,vpnl,2023-11-16_20h41.18.189,shortbabyloc,2023.2.2,59.85078720210812,
,,,,,,,,366.12472461900325,20,cars-62.jpg,AC,1,vpnl,2023-11-16_20h41.18.189,shortbabyloc,2023.2.2,59.85078720210812,
,,,,,,,,366.6247829240019,20,cars-63.jpg,AC,1,vpnl,2023-11-16_20h41.18.189,shortbabyloc,2023.2.2,59.85078720210812,
,,,,,,,,367.12523359899933,20,cars-64.jpg,AC,1,vpnl,2023-11-16_20h41.18.189,shortbabyloc,2023.2.2,59.85078720210812,
,,,,,,,,367.62444597399735,21,faces-57.jpg,AC,1,vpnl,2023-11-16_20h41.18.189,shortbabyloc,2023.2.2,59.85078720210812,
,,,,,,,,368.12471468601143,21,faces-58.jpg,AC,1,vpnl,2023-11-16_20h41.18.189,shortbabyloc,2023.2.2,59.85078720210812,
,,,,,,,,368.6249855070055,21,faces-59.jpg,AC,1,vpnl,2023-11-16_20h41.18.189,shortbabyloc,2023.2.2,59.85078720210812,
,,,,,,,,369.1242328100052,21,faces-60.jpg,AC,1,vpnl,2023-11-16_20h41.18.189,shortbabyloc,2023.2.2,59.85078720210812,
,,,,,,,,369.62616573700507,21,faces-61.jpg,AC,1,vpnl,2023-11-16_20h41.18.189,shortbabyloc,2023.2.2,59.85078720210812,
,,,,,,,,370.1249458280072,21,faces-62.jpg,AC,1,vpnl,2023-11-16_20h41.18.189,shortbabyloc,2023.2.2,59.85078720210812,
,,,,,,,,370.6253242590028,21,faces-63.jpg,AC,1,vpnl,2023-11-16_20h41.18.189,shortbabyloc,2023.2.2,59.85078720210812,
,,,,,,,,371.125063088999,21,faces-64.jpg,AC,1,vpnl,2023-11-16_20h41.18.189,shortbabyloc,2023.2.2,59.85078720210812,
,,,,,,,,371.6249120779976,22,blank-73.jpg,AC,1,vpnl,2023-11-16_20h41.18.189,shortbabyloc,2023.2.2,59.85078720210812,
,,,,,,,,372.1316521609988,22,blank-74.jpg,AC,1,vpnl,2023-11-16_20h41.18.189,shortbabyloc,2023.2.2,59.85078720210812,
,,,,,,,,372.62448649499856,22,blank-75.jpg,AC,1,vpnl,2023-11-16_20h41.18.189,shortbabyloc,2023.2.2,59.85078720210812,
,,,,,,,,373.124575275011,22,blank-76.jpg,AC,1,vpnl,2023-11-16_20h41.18.189,shortbabyloc,2023.2.2,59.85078720210812,
,,,,,,,,373.62454320800316,22,blank-77.jpg,AC,1,vpnl,2023-11-16_20h41.18.189,shortbabyloc,2023.2.2,59.85078720210812,
,,,,,,,,374.12394371500704,22,blank-78.jpg,AC,1,vpnl,2023-11-16_20h41.18.189,shortbabyloc,2023.2.2,59.85078720210812,
,,,,,,,,374.6268835630035,22,blank-79.jpg,AC,1,vpnl,2023-11-16_20h41.18.189,shortbabyloc,2023.2.2,59.85078720210812,
,,,,,,,,375.1248047929985,22,blank-80.jpg,AC,1,vpnl,2023-11-16_20h41.18.189,shortbabyloc,2023.2.2,59.85078720210812,
