thisRow.t,notes,waiting_for_trigger_text.started,trigger.started,trigger.keys,trigger.rt,countdown.started,trial.stopped,stimuli.started,condition,stim_name,stimuli.stopped,participant,run,user,date,expName,psychopyVersion,frameRate,
,,55.6228322700008,55.6228322700008,t,53.372692895,,,,,,,bb97,6,vpnl,2024-02-10_17h20.02.685,alternatingbabyloc,2023.2.2,91.7247835663093,
,,,,,,109.0225423640004,59.40880307000043,115.03166434100058,1,blank-1.jpg,,bb97,6,vpnl,2024-02-10_17h20.02.685,alternatingbabyloc,2023.2.2,91.7247835663093,
,,,,,,,,115.53173260100084,1,blank-2.jpg,,bb97,6,vpnl,2024-02-10_17h20.02.685,alternatingbabyloc,2023.2.2,91.7247835663093,
,,,,,,,,116.02836146300069,1,blank-3.jpg,,bb97,6,vpnl,2024-02-10_17h20.02.685,alternatingbabyloc,2023.2.2,91.7247835663093,
,,,,,,,,116.52870268100014,1,blank-4.jpg,,bb97,6,vpnl,2024-02-10_17h20.02.685,alternatingbabyloc,2023.2.2,91.7247835663093,
,,,,,,,,117.02840162900065,1,blank-5.jpg,,bb97,6,vpnl,2024-02-10_17h20.02.685,alternatingbabyloc,2023.2.2,91.7247835663093,
,,,,,,,,117.52862467399973,1,blank-6.jpg,,bb97,6,vpnl,2024-02-10_17h20.02.685,alternatingbabyloc,2023.2.2,91.7247835663093,
,,,,,,,,118.02873895100129,1,blank-7.jpg,,bb97,6,vpnl,2024-02-10_17h20.02.685,alternatingbabyloc,2023.2.2,91.7247835663093,
,,,,,,,,118.52826921000087,1,blank-8.jpg,,bb97,6,vpnl,2024-02-10_17h20.02.685,alternatingbabyloc,2023.2.2,91.7247835663093,
,,,,,,,,119.02774079099981,2,hands-1.jpg,,bb97,6,vpnl,2024-02-10_17h20.02.685,alternatingbabyloc,2023.2.2,91.7247835663093,
,,,,,,,,119.52812755800005,2,hands-2.jpg,,bb97,6,vpnl,2024-02-10_17h20.02.685,alternatingbabyloc,2023.2.2,91.7247835663093,
,,,,,,,,120.0284584380006,2,hands-3.jpg,,bb97,6,vpnl,2024-02-10_17h20.02.685,alternatingbabyloc,2023.2.2,91.7247835663093,
,,,,,,,,120.52832858700094,2,hands-4.jpg,,bb97,6,vpnl,2024-02-10_17h20.02.685,alternatingbabyloc,2023.2.2,91.7247835663093,
,,,,,,,,121.02841187500053,2,hands-5.jpg,,bb97,6,vpnl,2024-02-10_17h20.02.685,alternatingbabyloc,2023.2.2,91.7247835663093,
,,,,,,,,121.5280852800006,2,hands-6.jpg,,bb97,6,vpnl,2024-02-10_17h20.02.685,alternatingbabyloc,2023.2.2,91.7247835663093,
,,,,,,,,122.02826567100055,2,hands-7.jpg,,bb97,6,vpnl,2024-02-10_17h20.02.685,alternatingbabyloc,2023.2.2,91.7247835663093,
,,,,,,,,122.52823042300042,2,hands-8.jpg,,bb97,6,vpnl,2024-02-10_17h20.02.685,alternatingbabyloc,2023.2.2,91.7247835663093,
,,,,,,,,123.0275683230011,3,cars-1.jpg,,bb97,6,vpnl,2024-02-10_17h20.02.685,alternatingbabyloc,2023.2.2,91.7247835663093,
,,,,,,,,123.52754588900098,3,cars-2.jpg,,bb97,6,vpnl,2024-02-10_17h20.02.685,alternatingbabyloc,2023.2.2,91.7247835663093,
,,,,,,,,124.02803417399991,3,cars-3.jpg,,bb97,6,vpnl,2024-02-10_17h20.02.685,alternatingbabyloc,2023.2.2,91.7247835663093,
,,,,,,,,124.5283610990009,3,cars-4.jpg,,bb97,6,vpnl,2024-02-10_17h20.02.685,alternatingbabyloc,2023.2.2,91.7247835663093,
,,,,,,,,125.02868804500031,3,cars-5.jpg,,bb97,6,vpnl,2024-02-10_17h20.02.685,alternatingbabyloc,2023.2.2,91.7247835663093,
,,,,,,,,125.52862519500013,3,cars-6.jpg,,bb97,6,vpnl,2024-02-10_17h20.02.685,alternatingbabyloc,2023.2.2,91.7247835663093,
,,,,,,,,126.02828720800062,3,cars-7.jpg,,bb97,6,vpnl,2024-02-10_17h20.02.685,alternatingbabyloc,2023.2.2,91.7247835663093,
,,,,,,,,126.52847565500088,3,cars-8.jpg,,bb97,6,vpnl,2024-02-10_17h20.02.685,alternatingbabyloc,2023.2.2,91.7247835663093,
,,,,,,,,127.02837131100023,4,faces-1.jpg,,bb97,6,vpnl,2024-02-10_17h20.02.685,alternatingbabyloc,2023.2.2,91.7247835663093,
,,,,,,,,127.52867624300052,4,faces-2.jpg,,bb97,6,vpnl,2024-02-10_17h20.02.685,alternatingbabyloc,2023.2.2,91.7247835663093,
,,,,,,,,128.0282597000005,4,faces-3.jpg,,bb97,6,vpnl,2024-02-10_17h20.02.685,alternatingbabyloc,2023.2.2,91.7247835663093,
,,,,,,,,128.52867975899971,4,faces-4.jpg,,bb97,6,vpnl,2024-02-10_17h20.02.685,alternatingbabyloc,2023.2.2,91.7247835663093,
,,,,,,,,129.02878822800085,4,faces-5.jpg,,bb97,6,vpnl,2024-02-10_17h20.02.685,alternatingbabyloc,2023.2.2,91.7247835663093,
,,,,,,,,129.52845025500028,4,faces-6.jpg,,bb97,6,vpnl,2024-02-10_17h20.02.685,alternatingbabyloc,2023.2.2,91.7247835663093,
,,,,,,,,130.02844380200077,4,faces-7.jpg,,bb97,6,vpnl,2024-02-10_17h20.02.685,alternatingbabyloc,2023.2.2,91.7247835663093,
,,,,,,,,130.52807175700036,4,faces-8.jpg,,bb97,6,vpnl,2024-02-10_17h20.02.685,alternatingbabyloc,2023.2.2,91.7247835663093,
,,,,,,,,131.02823259400066,5,scenes-1.jpg,,bb97,6,vpnl,2024-02-10_17h20.02.685,alternatingbabyloc,2023.2.2,91.7247835663093,
,,,,,,,,131.52825966099954,5,scenes-2.jpg,,bb97,6,vpnl,2024-02-10_17h20.02.685,alternatingbabyloc,2023.2.2,91.7247835663093,
,,,,,,,,132.02838329000042,5,scenes-3.jpg,,bb97,6,vpnl,2024-02-10_17h20.02.685,alternatingbabyloc,2023.2.2,91.7247835663093,
,,,,,,,,132.52825803199994,5,scenes-4.jpg,,bb97,6,vpnl,2024-02-10_17h20.02.685,alternatingbabyloc,2023.2.2,91.7247835663093,
,,,,,,,,133.02831594000054,5,scenes-5.jpg,,bb97,6,vpnl,2024-02-10_17h20.02.685,alternatingbabyloc,2023.2.2,91.7247835663093,
,,,,,,,,133.52837374900082,5,scenes-6.jpg,,bb97,6,vpnl,2024-02-10_17h20.02.685,alternatingbabyloc,2023.2.2,91.7247835663093,
,,,,,,,,134.0282227509997,5,scenes-7.jpg,,bb97,6,vpnl,2024-02-10_17h20.02.685,alternatingbabyloc,2023.2.2,91.7247835663093,
,,,,,,,,134.52829364399986,5,scenes-8.jpg,,bb97,6,vpnl,2024-02-10_17h20.02.685,alternatingbabyloc,2023.2.2,91.7247835663093,
,,,,,,,,135.02827150800113,6,blank-9.jpg,,bb97,6,vpnl,2024-02-10_17h20.02.685,alternatingbabyloc,2023.2.2,91.7247835663093,
,,,,,,,,135.52832777799995,6,blank-10.jpg,,bb97,6,vpnl,2024-02-10_17h20.02.685,alternatingbabyloc,2023.2.2,91.7247835663093,
,,,,,,,,136.02818832500088,6,blank-11.jpg,,bb97,6,vpnl,2024-02-10_17h20.02.685,alternatingbabyloc,2023.2.2,91.7247835663093,
,,,,,,,,136.52816984400124,6,blank-12.jpg,,bb97,6,vpnl,2024-02-10_17h20.02.685,alternatingbabyloc,2023.2.2,91.7247835663093,
,,,,,,,,137.0277735890013,6,blank-13.jpg,,bb97,6,vpnl,2024-02-10_17h20.02.685,alternatingbabyloc,2023.2.2,91.7247835663093,
,,,,,,,,137.52834873200118,6,blank-14.jpg,,bb97,6,vpnl,2024-02-10_17h20.02.685,alternatingbabyloc,2023.2.2,91.7247835663093,
,,,,,,,,138.02811498700066,6,blank-15.jpg,,bb97,6,vpnl,2024-02-10_17h20.02.685,alternatingbabyloc,2023.2.2,91.7247835663093,
,,,,,,,,138.52822191500127,6,blank-16.jpg,,bb97,6,vpnl,2024-02-10_17h20.02.685,alternatingbabyloc,2023.2.2,91.7247835663093,
,,,,,,,,139.02826056400045,7,hands-9.jpg,,bb97,6,vpnl,2024-02-10_17h20.02.685,alternatingbabyloc,2023.2.2,91.7247835663093,
,,,,,,,,139.5281843440007,7,hands-10.jpg,,bb97,6,vpnl,2024-02-10_17h20.02.685,alternatingbabyloc,2023.2.2,91.7247835663093,
,,,,,,,,140.02817837000111,7,hands-11.jpg,,bb97,6,vpnl,2024-02-10_17h20.02.685,alternatingbabyloc,2023.2.2,91.7247835663093,
,,,,,,,,140.52815808299965,7,hands-12.jpg,,bb97,6,vpnl,2024-02-10_17h20.02.685,alternatingbabyloc,2023.2.2,91.7247835663093,
,,,,,,,,141.0281320890008,7,hands-13.jpg,,bb97,6,vpnl,2024-02-10_17h20.02.685,alternatingbabyloc,2023.2.2,91.7247835663093,
,,,,,,,,141.52817549800056,7,hands-14.jpg,,bb97,6,vpnl,2024-02-10_17h20.02.685,alternatingbabyloc,2023.2.2,91.7247835663093,
,,,,,,,,142.02803366599983,7,hands-15.jpg,,bb97,6,vpnl,2024-02-10_17h20.02.685,alternatingbabyloc,2023.2.2,91.7247835663093,
,,,,,,,,142.52804373599974,7,hands-16.jpg,,bb97,6,vpnl,2024-02-10_17h20.02.685,alternatingbabyloc,2023.2.2,91.7247835663093,
,,,,,,,,143.02755781100132,8,cars-9.jpg,,bb97,6,vpnl,2024-02-10_17h20.02.685,alternatingbabyloc,2023.2.2,91.7247835663093,
,,,,,,,,143.527894234001,8,cars-10.jpg,,bb97,6,vpnl,2024-02-10_17h20.02.685,alternatingbabyloc,2023.2.2,91.7247835663093,
,,,,,,,,144.02807661299994,8,cars-11.jpg,,bb97,6,vpnl,2024-02-10_17h20.02.685,alternatingbabyloc,2023.2.2,91.7247835663093,
,,,,,,,,144.52812832200107,8,cars-12.jpg,,bb97,6,vpnl,2024-02-10_17h20.02.685,alternatingbabyloc,2023.2.2,91.7247835663093,
,,,,,,,,145.0278567639998,8,cars-13.jpg,,bb97,6,vpnl,2024-02-10_17h20.02.685,alternatingbabyloc,2023.2.2,91.7247835663093,
,,,,,,,,145.52787543500017,8,cars-14.jpg,,bb97,6,vpnl,2024-02-10_17h20.02.685,alternatingbabyloc,2023.2.2,91.7247835663093,
,,,,,,,,146.02777815199988,8,cars-15.jpg,,bb97,6,vpnl,2024-02-10_17h20.02.685,alternatingbabyloc,2023.2.2,91.7247835663093,
,,,,,,,,146.52789395000036,8,cars-16.jpg,,bb97,6,vpnl,2024-02-10_17h20.02.685,alternatingbabyloc,2023.2.2,91.7247835663093,
,,,,,,,,147.0282083050006,9,faces-9.jpg,,bb97,6,vpnl,2024-02-10_17h20.02.685,alternatingbabyloc,2023.2.2,91.7247835663093,
,,,,,,,,147.52805270300087,9,faces-10.jpg,,bb97,6,vpnl,2024-02-10_17h20.02.685,alternatingbabyloc,2023.2.2,91.7247835663093,
,,,,,,,,148.02794491200075,9,faces-11.jpg,,bb97,6,vpnl,2024-02-10_17h20.02.685,alternatingbabyloc,2023.2.2,91.7247835663093,
,,,,,,,,148.52798004299984,9,faces-12.jpg,,bb97,6,vpnl,2024-02-10_17h20.02.685,alternatingbabyloc,2023.2.2,91.7247835663093,
,,,,,,,,149.02814942199984,9,faces-13.jpg,,bb97,6,vpnl,2024-02-10_17h20.02.685,alternatingbabyloc,2023.2.2,91.7247835663093,
,,,,,,,,149.52813323699957,9,faces-14.jpg,,bb97,6,vpnl,2024-02-10_17h20.02.685,alternatingbabyloc,2023.2.2,91.7247835663093,
,,,,,,,,150.02808516699952,9,faces-15.jpg,,bb97,6,vpnl,2024-02-10_17h20.02.685,alternatingbabyloc,2023.2.2,91.7247835663093,
,,,,,,,,150.5280549250001,9,faces-16.jpg,,bb97,6,vpnl,2024-02-10_17h20.02.685,alternatingbabyloc,2023.2.2,91.7247835663093,
,,,,,,,,151.02765677200114,10,scenes-9.jpg,,bb97,6,vpnl,2024-02-10_17h20.02.685,alternatingbabyloc,2023.2.2,91.7247835663093,
,,,,,,,,151.52766066600088,10,scenes-10.jpg,,bb97,6,vpnl,2024-02-10_17h20.02.685,alternatingbabyloc,2023.2.2,91.7247835663093,
,,,,,,,,152.02785955500076,10,scenes-11.jpg,,bb97,6,vpnl,2024-02-10_17h20.02.685,alternatingbabyloc,2023.2.2,91.7247835663093,
,,,,,,,,152.52792694100026,10,scenes-12.jpg,,bb97,6,vpnl,2024-02-10_17h20.02.685,alternatingbabyloc,2023.2.2,91.7247835663093,
,,,,,,,,153.02779824699974,10,scenes-13.jpg,,bb97,6,vpnl,2024-02-10_17h20.02.685,alternatingbabyloc,2023.2.2,91.7247835663093,
,,,,,,,,153.52778743199997,10,scenes-14.jpg,,bb97,6,vpnl,2024-02-10_17h20.02.685,alternatingbabyloc,2023.2.2,91.7247835663093,
,,,,,,,,154.02772808900045,10,scenes-15.jpg,,bb97,6,vpnl,2024-02-10_17h20.02.685,alternatingbabyloc,2023.2.2,91.7247835663093,
,,,,,,,,154.52805495400025,10,scenes-16.jpg,,bb97,6,vpnl,2024-02-10_17h20.02.685,alternatingbabyloc,2023.2.2,91.7247835663093,
,,,,,,,,155.0281723349999,11,blank-17.jpg,,bb97,6,vpnl,2024-02-10_17h20.02.685,alternatingbabyloc,2023.2.2,91.7247835663093,
,,,,,,,,155.52827573000104,11,blank-18.jpg,,bb97,6,vpnl,2024-02-10_17h20.02.685,alternatingbabyloc,2023.2.2,91.7247835663093,
,,,,,,,,156.02789126100106,11,blank-19.jpg,,bb97,6,vpnl,2024-02-10_17h20.02.685,alternatingbabyloc,2023.2.2,91.7247835663093,
,,,,,,,,156.5278069570013,11,blank-20.jpg,,bb97,6,vpnl,2024-02-10_17h20.02.685,alternatingbabyloc,2023.2.2,91.7247835663093,
,,,,,,,,157.0268568219999,11,blank-21.jpg,,bb97,6,vpnl,2024-02-10_17h20.02.685,alternatingbabyloc,2023.2.2,91.7247835663093,
,,,,,,,,157.52711553600057,11,blank-22.jpg,,bb97,6,vpnl,2024-02-10_17h20.02.685,alternatingbabyloc,2023.2.2,91.7247835663093,
,,,,,,,,158.02727443500044,11,blank-23.jpg,,bb97,6,vpnl,2024-02-10_17h20.02.685,alternatingbabyloc,2023.2.2,91.7247835663093,
,,,,,,,,158.52706222000052,11,blank-24.jpg,,bb97,6,vpnl,2024-02-10_17h20.02.685,alternatingbabyloc,2023.2.2,91.7247835663093,
,,,,,,,,159.0270878880001,12,hands-17.jpg,,bb97,6,vpnl,2024-02-10_17h20.02.685,alternatingbabyloc,2023.2.2,91.7247835663093,
,,,,,,,,159.5291087330006,12,hands-18.jpg,,bb97,6,vpnl,2024-02-10_17h20.02.685,alternatingbabyloc,2023.2.2,91.7247835663093,
,,,,,,,,160.02681517100064,12,hands-19.jpg,,bb97,6,vpnl,2024-02-10_17h20.02.685,alternatingbabyloc,2023.2.2,91.7247835663093,
,,,,,,,,160.52741240000069,12,hands-20.jpg,,bb97,6,vpnl,2024-02-10_17h20.02.685,alternatingbabyloc,2023.2.2,91.7247835663093,
,,,,,,,,161.02709783300088,12,hands-21.jpg,,bb97,6,vpnl,2024-02-10_17h20.02.685,alternatingbabyloc,2023.2.2,91.7247835663093,
,,,,,,,,161.5278059129996,12,hands-22.jpg,,bb97,6,vpnl,2024-02-10_17h20.02.685,alternatingbabyloc,2023.2.2,91.7247835663093,
,,,,,,,,162.02725068700056,12,hands-23.jpg,,bb97,6,vpnl,2024-02-10_17h20.02.685,alternatingbabyloc,2023.2.2,91.7247835663093,
,,,,,,,,162.52732987800118,12,hands-24.jpg,,bb97,6,vpnl,2024-02-10_17h20.02.685,alternatingbabyloc,2023.2.2,91.7247835663093,
,,,,,,,,163.02716954700009,13,scenes-17.jpg,,bb97,6,vpnl,2024-02-10_17h20.02.685,alternatingbabyloc,2023.2.2,91.7247835663093,
,,,,,,,,163.52786775200002,13,scenes-18.jpg,,bb97,6,vpnl,2024-02-10_17h20.02.685,alternatingbabyloc,2023.2.2,91.7247835663093,
,,,,,,,,164.02762863099997,13,scenes-19.jpg,,bb97,6,vpnl,2024-02-10_17h20.02.685,alternatingbabyloc,2023.2.2,91.7247835663093,
,,,,,,,,164.5271684390009,13,scenes-20.jpg,,bb97,6,vpnl,2024-02-10_17h20.02.685,alternatingbabyloc,2023.2.2,91.7247835663093,
,,,,,,,,165.02739208800085,13,scenes-21.jpg,,bb97,6,vpnl,2024-02-10_17h20.02.685,alternatingbabyloc,2023.2.2,91.7247835663093,
,,,,,,,,165.52780553699995,13,scenes-22.jpg,,bb97,6,vpnl,2024-02-10_17h20.02.685,alternatingbabyloc,2023.2.2,91.7247835663093,
,,,,,,,,166.02787003699996,13,scenes-23.jpg,,bb97,6,vpnl,2024-02-10_17h20.02.685,alternatingbabyloc,2023.2.2,91.7247835663093,
,,,,,,,,166.52777879800124,13,scenes-24.jpg,,bb97,6,vpnl,2024-02-10_17h20.02.685,alternatingbabyloc,2023.2.2,91.7247835663093,
,,,,,,,,167.02588933600055,14,faces-17.jpg,,bb97,6,vpnl,2024-02-10_17h20.02.685,alternatingbabyloc,2023.2.2,91.7247835663093,
,,,,,,,,167.52803312800097,14,faces-18.jpg,,bb97,6,vpnl,2024-02-10_17h20.02.685,alternatingbabyloc,2023.2.2,91.7247835663093,
,,,,,,,,168.02775353200013,14,faces-19.jpg,,bb97,6,vpnl,2024-02-10_17h20.02.685,alternatingbabyloc,2023.2.2,91.7247835663093,
,,,,,,,,168.5278552790005,14,faces-20.jpg,,bb97,6,vpnl,2024-02-10_17h20.02.685,alternatingbabyloc,2023.2.2,91.7247835663093,
,,,,,,,,169.0276505439997,14,faces-21.jpg,,bb97,6,vpnl,2024-02-10_17h20.02.685,alternatingbabyloc,2023.2.2,91.7247835663093,
,,,,,,,,169.52778305100037,14,faces-22.jpg,,bb97,6,vpnl,2024-02-10_17h20.02.685,alternatingbabyloc,2023.2.2,91.7247835663093,
,,,,,,,,170.02786779300004,14,faces-23.jpg,,bb97,6,vpnl,2024-02-10_17h20.02.685,alternatingbabyloc,2023.2.2,91.7247835663093,
,,,,,,,,170.52753808200032,14,faces-24.jpg,,bb97,6,vpnl,2024-02-10_17h20.02.685,alternatingbabyloc,2023.2.2,91.7247835663093,
,,,,,,,,171.02758457399977,15,cars-17.jpg,,bb97,6,vpnl,2024-02-10_17h20.02.685,alternatingbabyloc,2023.2.2,91.7247835663093,
,,,,,,,,171.52736205499968,15,cars-18.jpg,,bb97,6,vpnl,2024-02-10_17h20.02.685,alternatingbabyloc,2023.2.2,91.7247835663093,
,,,,,,,,172.02755632000117,15,cars-19.jpg,,bb97,6,vpnl,2024-02-10_17h20.02.685,alternatingbabyloc,2023.2.2,91.7247835663093,
,,,,,,,,172.5274223560009,15,cars-20.jpg,,bb97,6,vpnl,2024-02-10_17h20.02.685,alternatingbabyloc,2023.2.2,91.7247835663093,
,,,,,,,,173.0273900780012,15,cars-21.jpg,,bb97,6,vpnl,2024-02-10_17h20.02.685,alternatingbabyloc,2023.2.2,91.7247835663093,
,,,,,,,,173.52751117000116,15,cars-22.jpg,,bb97,6,vpnl,2024-02-10_17h20.02.685,alternatingbabyloc,2023.2.2,91.7247835663093,
,,,,,,,,174.02762742599953,15,cars-23.jpg,,bb97,6,vpnl,2024-02-10_17h20.02.685,alternatingbabyloc,2023.2.2,91.7247835663093,
,,,,,,,,174.52743956700033,15,cars-24.jpg,,bb97,6,vpnl,2024-02-10_17h20.02.685,alternatingbabyloc,2023.2.2,91.7247835663093,
,,,,,,,,175.02708842799984,16,blank-25.jpg,,bb97,6,vpnl,2024-02-10_17h20.02.685,alternatingbabyloc,2023.2.2,91.7247835663093,
,,,,,,,,175.52751033999994,16,blank-26.jpg,,bb97,6,vpnl,2024-02-10_17h20.02.685,alternatingbabyloc,2023.2.2,91.7247835663093,
,,,,,,,,176.02748152300046,16,blank-27.jpg,,bb97,6,vpnl,2024-02-10_17h20.02.685,alternatingbabyloc,2023.2.2,91.7247835663093,
,,,,,,,,176.52767640000093,16,blank-28.jpg,,bb97,6,vpnl,2024-02-10_17h20.02.685,alternatingbabyloc,2023.2.2,91.7247835663093,
,,,,,,,,177.02756594200036,16,blank-29.jpg,,bb97,6,vpnl,2024-02-10_17h20.02.685,alternatingbabyloc,2023.2.2,91.7247835663093,
,,,,,,,,177.5274688970003,16,blank-30.jpg,,bb97,6,vpnl,2024-02-10_17h20.02.685,alternatingbabyloc,2023.2.2,91.7247835663093,
,,,,,,,,178.02769289000025,16,blank-31.jpg,,bb97,6,vpnl,2024-02-10_17h20.02.685,alternatingbabyloc,2023.2.2,91.7247835663093,
,,,,,,,,178.52750353600095,16,blank-32.jpg,,bb97,6,vpnl,2024-02-10_17h20.02.685,alternatingbabyloc,2023.2.2,91.7247835663093,
,,,,,,,,179.02689129400096,17,faces-25.jpg,,bb97,6,vpnl,2024-02-10_17h20.02.685,alternatingbabyloc,2023.2.2,91.7247835663093,
,,,,,,,,179.52745349399993,17,faces-26.jpg,,bb97,6,vpnl,2024-02-10_17h20.02.685,alternatingbabyloc,2023.2.2,91.7247835663093,
,,,,,,,,180.02735504200064,17,faces-27.jpg,,bb97,6,vpnl,2024-02-10_17h20.02.685,alternatingbabyloc,2023.2.2,91.7247835663093,
,,,,,,,,180.52736157900108,17,faces-28.jpg,,bb97,6,vpnl,2024-02-10_17h20.02.685,alternatingbabyloc,2023.2.2,91.7247835663093,
,,,,,,,,181.02758267100035,17,faces-29.jpg,,bb97,6,vpnl,2024-02-10_17h20.02.685,alternatingbabyloc,2023.2.2,91.7247835663093,
,,,,,,,,181.52736847300002,17,faces-30.jpg,,bb97,6,vpnl,2024-02-10_17h20.02.685,alternatingbabyloc,2023.2.2,91.7247835663093,
,,,,,,,,182.02728752300027,17,faces-31.jpg,,bb97,6,vpnl,2024-02-10_17h20.02.685,alternatingbabyloc,2023.2.2,91.7247835663093,
,,,,,,,,182.52741690900075,17,faces-32.jpg,,bb97,6,vpnl,2024-02-10_17h20.02.685,alternatingbabyloc,2023.2.2,91.7247835663093,
,,,,,,,,183.02662374400097,18,cars-25.jpg,,bb97,6,vpnl,2024-02-10_17h20.02.685,alternatingbabyloc,2023.2.2,91.7247835663093,
,,,,,,,,183.52746614700118,18,cars-26.jpg,,bb97,6,vpnl,2024-02-10_17h20.02.685,alternatingbabyloc,2023.2.2,91.7247835663093,
,,,,,,,,184.02728456000114,18,cars-27.jpg,,bb97,6,vpnl,2024-02-10_17h20.02.685,alternatingbabyloc,2023.2.2,91.7247835663093,
,,,,,,,,184.527406489,18,cars-28.jpg,,bb97,6,vpnl,2024-02-10_17h20.02.685,alternatingbabyloc,2023.2.2,91.7247835663093,
,,,,,,,,185.02737309400072,18,cars-29.jpg,,bb97,6,vpnl,2024-02-10_17h20.02.685,alternatingbabyloc,2023.2.2,91.7247835663093,
,,,,,,,,185.52730457100006,18,cars-30.jpg,,bb97,6,vpnl,2024-02-10_17h20.02.685,alternatingbabyloc,2023.2.2,91.7247835663093,
,,,,,,,,186.0274220930005,18,cars-31.jpg,,bb97,6,vpnl,2024-02-10_17h20.02.685,alternatingbabyloc,2023.2.2,91.7247835663093,
,,,,,,,,186.5270971150003,18,cars-32.jpg,,bb97,6,vpnl,2024-02-10_17h20.02.685,alternatingbabyloc,2023.2.2,91.7247835663093,
,,,,,,,,187.02696479500082,19,scenes-25.jpg,,bb97,6,vpnl,2024-02-10_17h20.02.685,alternatingbabyloc,2023.2.2,91.7247835663093,
,,,,,,,,187.5271792830008,19,scenes-26.jpg,,bb97,6,vpnl,2024-02-10_17h20.02.685,alternatingbabyloc,2023.2.2,91.7247835663093,
,,,,,,,,188.02744302700012,19,scenes-27.jpg,,bb97,6,vpnl,2024-02-10_17h20.02.685,alternatingbabyloc,2023.2.2,91.7247835663093,
,,,,,,,,188.5273999029996,19,scenes-28.jpg,,bb97,6,vpnl,2024-02-10_17h20.02.685,alternatingbabyloc,2023.2.2,91.7247835663093,
,,,,,,,,189.0271157870011,19,scenes-29.jpg,,bb97,6,vpnl,2024-02-10_17h20.02.685,alternatingbabyloc,2023.2.2,91.7247835663093,
,,,,,,,,189.52716062800027,19,scenes-30.jpg,,bb97,6,vpnl,2024-02-10_17h20.02.685,alternatingbabyloc,2023.2.2,91.7247835663093,
,,,,,,,,190.02722487000028,19,scenes-31.jpg,,bb97,6,vpnl,2024-02-10_17h20.02.685,alternatingbabyloc,2023.2.2,91.7247835663093,
,,,,,,,,190.52697236800122,19,scenes-32.jpg,,bb97,6,vpnl,2024-02-10_17h20.02.685,alternatingbabyloc,2023.2.2,91.7247835663093,
,,,,,,,,191.02742602500075,20,blank-33.jpg,,bb97,6,vpnl,2024-02-10_17h20.02.685,alternatingbabyloc,2023.2.2,91.7247835663093,
,,,,,,,,191.52719000700017,20,blank-34.jpg,,bb97,6,vpnl,2024-02-10_17h20.02.685,alternatingbabyloc,2023.2.2,91.7247835663093,
,,,,,,,,192.02706566599954,20,blank-35.jpg,,bb97,6,vpnl,2024-02-10_17h20.02.685,alternatingbabyloc,2023.2.2,91.7247835663093,
,,,,,,,,192.52712675800103,20,blank-36.jpg,,bb97,6,vpnl,2024-02-10_17h20.02.685,alternatingbabyloc,2023.2.2,91.7247835663093,
,,,,,,,,193.02698878299998,20,blank-37.jpg,,bb97,6,vpnl,2024-02-10_17h20.02.685,alternatingbabyloc,2023.2.2,91.7247835663093,
,,,,,,,,193.5272260439997,20,blank-38.jpg,,bb97,6,vpnl,2024-02-10_17h20.02.685,alternatingbabyloc,2023.2.2,91.7247835663093,
,,,,,,,,194.02713388700067,20,blank-39.jpg,,bb97,6,vpnl,2024-02-10_17h20.02.685,alternatingbabyloc,2023.2.2,91.7247835663093,
,,,,,,,,194.52701969200098,20,blank-40.jpg,,bb97,6,vpnl,2024-02-10_17h20.02.685,alternatingbabyloc,2023.2.2,91.7247835663093,
,,,,,,,,195.0272037220002,21,hands-25.jpg,,bb97,6,vpnl,2024-02-10_17h20.02.685,alternatingbabyloc,2023.2.2,91.7247835663093,
,,,,,,,,195.52719620500102,21,hands-26.jpg,,bb97,6,vpnl,2024-02-10_17h20.02.685,alternatingbabyloc,2023.2.2,91.7247835663093,
,,,,,,,,196.02706609500092,21,hands-27.jpg,,bb97,6,vpnl,2024-02-10_17h20.02.685,alternatingbabyloc,2023.2.2,91.7247835663093,
,,,,,,,,196.52715750500101,21,hands-28.jpg,,bb97,6,vpnl,2024-02-10_17h20.02.685,alternatingbabyloc,2023.2.2,91.7247835663093,
,,,,,,,,197.02615544000037,21,hands-29.jpg,,bb97,6,vpnl,2024-02-10_17h20.02.685,alternatingbabyloc,2023.2.2,91.7247835663093,
,,,,,,,,197.52607307000108,21,hands-30.jpg,,bb97,6,vpnl,2024-02-10_17h20.02.685,alternatingbabyloc,2023.2.2,91.7247835663093,
,,,,,,,,198.02660934199957,21,hands-31.jpg,,bb97,6,vpnl,2024-02-10_17h20.02.685,alternatingbabyloc,2023.2.2,91.7247835663093,
,,,,,,,,198.5263210080011,21,hands-32.jpg,,bb97,6,vpnl,2024-02-10_17h20.02.685,alternatingbabyloc,2023.2.2,91.7247835663093,
,,,,,,,,199.02643804200125,22,cars-33.jpg,,bb97,6,vpnl,2024-02-10_17h20.02.685,alternatingbabyloc,2023.2.2,91.7247835663093,
,,,,,,,,199.5266085559997,22,cars-34.jpg,,bb97,6,vpnl,2024-02-10_17h20.02.685,alternatingbabyloc,2023.2.2,91.7247835663093,
,,,,,,,,200.02677880800002,22,cars-35.jpg,,bb97,6,vpnl,2024-02-10_17h20.02.685,alternatingbabyloc,2023.2.2,91.7247835663093,
,,,,,,,,200.52714847400057,22,cars-36.jpg,,bb97,6,vpnl,2024-02-10_17h20.02.685,alternatingbabyloc,2023.2.2,91.7247835663093,
,,,,,,,,201.02655103600046,22,cars-37.jpg,,bb97,6,vpnl,2024-02-10_17h20.02.685,alternatingbabyloc,2023.2.2,91.7247835663093,
,,,,,,,,201.52668706999975,22,cars-38.jpg,,bb97,6,vpnl,2024-02-10_17h20.02.685,alternatingbabyloc,2023.2.2,91.7247835663093,
,,,,,,,,202.02696205200118,22,cars-39.jpg,,bb97,6,vpnl,2024-02-10_17h20.02.685,alternatingbabyloc,2023.2.2,91.7247835663093,
,,,,,,,,202.52649011300127,22,cars-40.jpg,,bb97,6,vpnl,2024-02-10_17h20.02.685,alternatingbabyloc,2023.2.2,91.7247835663093,
,,,,,,,,203.0259988680009,23,scenes-33.jpg,,bb97,6,vpnl,2024-02-10_17h20.02.685,alternatingbabyloc,2023.2.2,91.7247835663093,
,,,,,,,,203.5269691909998,23,scenes-34.jpg,,bb97,6,vpnl,2024-02-10_17h20.02.685,alternatingbabyloc,2023.2.2,91.7247835663093,
,,,,,,,,204.0267905159999,23,scenes-35.jpg,,bb97,6,vpnl,2024-02-10_17h20.02.685,alternatingbabyloc,2023.2.2,91.7247835663093,
,,,,,,,,204.52692566800033,23,scenes-36.jpg,,bb97,6,vpnl,2024-02-10_17h20.02.685,alternatingbabyloc,2023.2.2,91.7247835663093,
,,,,,,,,205.02674735300025,23,scenes-37.jpg,,bb97,6,vpnl,2024-02-10_17h20.02.685,alternatingbabyloc,2023.2.2,91.7247835663093,
,,,,,,,,205.5268201400013,23,scenes-38.jpg,,bb97,6,vpnl,2024-02-10_17h20.02.685,alternatingbabyloc,2023.2.2,91.7247835663093,
,,,,,,,,206.0266382080008,23,scenes-39.jpg,,bb97,6,vpnl,2024-02-10_17h20.02.685,alternatingbabyloc,2023.2.2,91.7247835663093,
,,,,,,,,206.52690367499963,23,scenes-40.jpg,,bb97,6,vpnl,2024-02-10_17h20.02.685,alternatingbabyloc,2023.2.2,91.7247835663093,
,,,,,,,,207.0268310850006,24,hands-33.jpg,,bb97,6,vpnl,2024-02-10_17h20.02.685,alternatingbabyloc,2023.2.2,91.7247835663093,
,,,,,,,,207.5269618729999,24,hands-34.jpg,,bb97,6,vpnl,2024-02-10_17h20.02.685,alternatingbabyloc,2023.2.2,91.7247835663093,
,,,,,,,,208.02674627499982,24,hands-35.jpg,,bb97,6,vpnl,2024-02-10_17h20.02.685,alternatingbabyloc,2023.2.2,91.7247835663093,
,,,,,,,,208.5268758809998,24,hands-36.jpg,,bb97,6,vpnl,2024-02-10_17h20.02.685,alternatingbabyloc,2023.2.2,91.7247835663093,
,,,,,,,,209.0270450930002,24,hands-37.jpg,,bb97,6,vpnl,2024-02-10_17h20.02.685,alternatingbabyloc,2023.2.2,91.7247835663093,
,,,,,,,,209.52672294200056,24,hands-38.jpg,,bb97,6,vpnl,2024-02-10_17h20.02.685,alternatingbabyloc,2023.2.2,91.7247835663093,
,,,,,,,,210.02676928800065,24,hands-39.jpg,,bb97,6,vpnl,2024-02-10_17h20.02.685,alternatingbabyloc,2023.2.2,91.7247835663093,
,,,,,,,,210.52664987200114,24,hands-40.jpg,,bb97,6,vpnl,2024-02-10_17h20.02.685,alternatingbabyloc,2023.2.2,91.7247835663093,
,,,,,,,,211.02590939400034,25,faces-33.jpg,,bb97,6,vpnl,2024-02-10_17h20.02.685,alternatingbabyloc,2023.2.2,91.7247835663093,
,,,,,,,,211.526666234,25,faces-34.jpg,,bb97,6,vpnl,2024-02-10_17h20.02.685,alternatingbabyloc,2023.2.2,91.7247835663093,
,,,,,,,,212.02623215700078,25,faces-35.jpg,,bb97,6,vpnl,2024-02-10_17h20.02.685,alternatingbabyloc,2023.2.2,91.7247835663093,
,,,,,,,,212.52683019399956,25,faces-36.jpg,,bb97,6,vpnl,2024-02-10_17h20.02.685,alternatingbabyloc,2023.2.2,91.7247835663093,
,,,,,,,,213.0262755120002,25,faces-37.jpg,,bb97,6,vpnl,2024-02-10_17h20.02.685,alternatingbabyloc,2023.2.2,91.7247835663093,
,,,,,,,,213.52695948499968,25,faces-38.jpg,,bb97,6,vpnl,2024-02-10_17h20.02.685,alternatingbabyloc,2023.2.2,91.7247835663093,
,,,,,,,,214.02662661500108,25,faces-39.jpg,,bb97,6,vpnl,2024-02-10_17h20.02.685,alternatingbabyloc,2023.2.2,91.7247835663093,
,,,,,,,,214.52662760800013,25,faces-40.jpg,215.03119926,bb97,6,vpnl,2024-02-10_17h20.02.685,alternatingbabyloc,2023.2.2,91.7247835663093,
,,,,,,,,215.03119926,26,blank-41.jpg,,bb97,6,vpnl,2024-02-10_17h20.02.685,alternatingbabyloc,2023.2.2,91.7247835663093,
,,,,,,,,215.52643365400036,26,blank-42.jpg,,bb97,6,vpnl,2024-02-10_17h20.02.685,alternatingbabyloc,2023.2.2,91.7247835663093,
,,,,,,,,216.02647406100004,26,blank-43.jpg,,bb97,6,vpnl,2024-02-10_17h20.02.685,alternatingbabyloc,2023.2.2,91.7247835663093,
,,,,,,,,216.52655874500124,26,blank-44.jpg,217.026130612001,bb97,6,vpnl,2024-02-10_17h20.02.685,alternatingbabyloc,2023.2.2,91.7247835663093,
,,,,,,,,217.026130612001,26,blank-45.jpg,,bb97,6,vpnl,2024-02-10_17h20.02.685,alternatingbabyloc,2023.2.2,91.7247835663093,
,,,,,,,,217.52655956300077,26,blank-46.jpg,,bb97,6,vpnl,2024-02-10_17h20.02.685,alternatingbabyloc,2023.2.2,91.7247835663093,
,,,,,,,,218.0267985950013,26,blank-47.jpg,,bb97,6,vpnl,2024-02-10_17h20.02.685,alternatingbabyloc,2023.2.2,91.7247835663093,
,,,,,,,,218.52631407599984,26,blank-48.jpg,,bb97,6,vpnl,2024-02-10_17h20.02.685,alternatingbabyloc,2023.2.2,91.7247835663093,
,,,,,,,,219.02592272000038,27,faces-41.jpg,219.52618413799973,bb97,6,vpnl,2024-02-10_17h20.02.685,alternatingbabyloc,2023.2.2,91.7247835663093,
,,,,,,,,219.52618413799973,27,faces-42.jpg,,bb97,6,vpnl,2024-02-10_17h20.02.685,alternatingbabyloc,2023.2.2,91.7247835663093,
,,,,,,,,220.02618064099988,27,faces-43.jpg,,bb97,6,vpnl,2024-02-10_17h20.02.685,alternatingbabyloc,2023.2.2,91.7247835663093,
,,,,,,,,220.52605369199955,27,faces-44.jpg,,bb97,6,vpnl,2024-02-10_17h20.02.685,alternatingbabyloc,2023.2.2,91.7247835663093,
,,,,,,,,221.02633764600068,27,faces-45.jpg,,bb97,6,vpnl,2024-02-10_17h20.02.685,alternatingbabyloc,2023.2.2,91.7247835663093,
,,,,,,,,221.52655118800067,27,faces-46.jpg,,bb97,6,vpnl,2024-02-10_17h20.02.685,alternatingbabyloc,2023.2.2,91.7247835663093,
,,,,,,,,222.02621415300018,27,faces-47.jpg,,bb97,6,vpnl,2024-02-10_17h20.02.685,alternatingbabyloc,2023.2.2,91.7247835663093,
,,,,,,,,222.5264106980012,27,faces-48.jpg,,bb97,6,vpnl,2024-02-10_17h20.02.685,alternatingbabyloc,2023.2.2,91.7247835663093,
,,,,,,,,223.02611265999985,28,blank-49.jpg,,bb97,6,vpnl,2024-02-10_17h20.02.685,alternatingbabyloc,2023.2.2,91.7247835663093,
,,,,,,,,223.5262417949998,28,blank-50.jpg,,bb97,6,vpnl,2024-02-10_17h20.02.685,alternatingbabyloc,2023.2.2,91.7247835663093,
,,,,,,,,224.02652233200024,28,blank-51.jpg,,bb97,6,vpnl,2024-02-10_17h20.02.685,alternatingbabyloc,2023.2.2,91.7247835663093,
,,,,,,,,224.52641008700084,28,blank-52.jpg,,bb97,6,vpnl,2024-02-10_17h20.02.685,alternatingbabyloc,2023.2.2,91.7247835663093,
,,,,,,,,225.02702675100045,28,blank-53.jpg,,bb97,6,vpnl,2024-02-10_17h20.02.685,alternatingbabyloc,2023.2.2,91.7247835663093,
,,,,,,,,225.52613454099992,28,blank-54.jpg,226.0258409979997,bb97,6,vpnl,2024-02-10_17h20.02.685,alternatingbabyloc,2023.2.2,91.7247835663093,
,,,,,,,,226.0258409979997,28,blank-55.jpg,,bb97,6,vpnl,2024-02-10_17h20.02.685,alternatingbabyloc,2023.2.2,91.7247835663093,
,,,,,,,,226.5260377020004,28,blank-56.jpg,,bb97,6,vpnl,2024-02-10_17h20.02.685,alternatingbabyloc,2023.2.2,91.7247835663093,
,,,,,,,,227.02557449599954,29,hands-41.jpg,,bb97,6,vpnl,2024-02-10_17h20.02.685,alternatingbabyloc,2023.2.2,91.7247835663093,
,,,,,,,,227.52576561000024,29,hands-42.jpg,,bb97,6,vpnl,2024-02-10_17h20.02.685,alternatingbabyloc,2023.2.2,91.7247835663093,
,,,,,,,,228.0259836940004,29,hands-43.jpg,,bb97,6,vpnl,2024-02-10_17h20.02.685,alternatingbabyloc,2023.2.2,91.7247835663093,
,,,,,,,,228.52582675099984,29,hands-44.jpg,,bb97,6,vpnl,2024-02-10_17h20.02.685,alternatingbabyloc,2023.2.2,91.7247835663093,
,,,,,,,,229.02566099599971,29,hands-45.jpg,,bb97,6,vpnl,2024-02-10_17h20.02.685,alternatingbabyloc,2023.2.2,91.7247835663093,
,,,,,,,,229.52572699300072,29,hands-46.jpg,,bb97,6,vpnl,2024-02-10_17h20.02.685,alternatingbabyloc,2023.2.2,91.7247835663093,
,,,,,,,,230.02579914600028,29,hands-47.jpg,,bb97,6,vpnl,2024-02-10_17h20.02.685,alternatingbabyloc,2023.2.2,91.7247835663093,
,,,,,,,,230.5258943890003,29,hands-48.jpg,,bb97,6,vpnl,2024-02-10_17h20.02.685,alternatingbabyloc,2023.2.2,91.7247835663093,
,,,,,,,,231.0265585220004,30,scenes-41.jpg,231.52573808600027,bb97,6,vpnl,2024-02-10_17h20.02.685,alternatingbabyloc,2023.2.2,91.7247835663093,
,,,,,,,,231.52573808600027,30,scenes-42.jpg,,bb97,6,vpnl,2024-02-10_17h20.02.685,alternatingbabyloc,2023.2.2,91.7247835663093,
,,,,,,,,232.0260095370013,30,scenes-43.jpg,,bb97,6,vpnl,2024-02-10_17h20.02.685,alternatingbabyloc,2023.2.2,91.7247835663093,
,,,,,,,,232.52568326999972,30,scenes-44.jpg,,bb97,6,vpnl,2024-02-10_17h20.02.685,alternatingbabyloc,2023.2.2,91.7247835663093,
,,,,,,,,233.02601432600022,30,scenes-45.jpg,,bb97,6,vpnl,2024-02-10_17h20.02.685,alternatingbabyloc,2023.2.2,91.7247835663093,
,,,,,,,,233.5261299949998,30,scenes-46.jpg,,bb97,6,vpnl,2024-02-10_17h20.02.685,alternatingbabyloc,2023.2.2,91.7247835663093,
,,,,,,,,234.02719164399969,30,scenes-47.jpg,,bb97,6,vpnl,2024-02-10_17h20.02.685,alternatingbabyloc,2023.2.2,91.7247835663093,
,,,,,,,,234.5259975200006,30,scenes-48.jpg,,bb97,6,vpnl,2024-02-10_17h20.02.685,alternatingbabyloc,2023.2.2,91.7247835663093,
,,,,,,,,235.02549296100005,31,cars-41.jpg,,bb97,6,vpnl,2024-02-10_17h20.02.685,alternatingbabyloc,2023.2.2,91.7247835663093,
,,,,,,,,235.5258644149999,31,cars-42.jpg,,bb97,6,vpnl,2024-02-10_17h20.02.685,alternatingbabyloc,2023.2.2,91.7247835663093,
,,,,,,,,236.0256230949999,31,cars-43.jpg,236.5253125979998,bb97,6,vpnl,2024-02-10_17h20.02.685,alternatingbabyloc,2023.2.2,91.7247835663093,
,,,,,,,,236.5253125979998,31,cars-44.jpg,237.0258422220013,bb97,6,vpnl,2024-02-10_17h20.02.685,alternatingbabyloc,2023.2.2,91.7247835663093,
,,,,,,,,237.0258422220013,31,cars-45.jpg,,bb97,6,vpnl,2024-02-10_17h20.02.685,alternatingbabyloc,2023.2.2,91.7247835663093,
,,,,,,,,237.52593754200097,31,cars-46.jpg,238.0258345860002,bb97,6,vpnl,2024-02-10_17h20.02.685,alternatingbabyloc,2023.2.2,91.7247835663093,
,,,,,,,,238.0258345860002,31,cars-47.jpg,238.52525491300003,bb97,6,vpnl,2024-02-10_17h20.02.685,alternatingbabyloc,2023.2.2,91.7247835663093,
,,,,,,,,238.52525491300003,31,cars-48.jpg,,bb97,6,vpnl,2024-02-10_17h20.02.685,alternatingbabyloc,2023.2.2,91.7247835663093,
,,,,,,,,239.0256828319998,32,hands-49.jpg,239.5258533690012,bb97,6,vpnl,2024-02-10_17h20.02.685,alternatingbabyloc,2023.2.2,91.7247835663093,
,,,,,,,,239.5258533690012,32,hands-50.jpg,240.02551330700044,bb97,6,vpnl,2024-02-10_17h20.02.685,alternatingbabyloc,2023.2.2,91.7247835663093,
,,,,,,,,240.02551330700044,32,hands-51.jpg,240.52523155400013,bb97,6,vpnl,2024-02-10_17h20.02.685,alternatingbabyloc,2023.2.2,91.7247835663093,
,,,,,,,,240.52523155400013,32,hands-52.jpg,241.0256988710007,bb97,6,vpnl,2024-02-10_17h20.02.685,alternatingbabyloc,2023.2.2,91.7247835663093,
,,,,,,,,241.0256988710007,32,hands-53.jpg,,bb97,6,vpnl,2024-02-10_17h20.02.685,alternatingbabyloc,2023.2.2,91.7247835663093,
,,,,,,,,241.5252665500011,32,hands-54.jpg,242.02518436399987,bb97,6,vpnl,2024-02-10_17h20.02.685,alternatingbabyloc,2023.2.2,91.7247835663093,
,,,,,,,,242.02518436399987,32,hands-55.jpg,242.52583660399978,bb97,6,vpnl,2024-02-10_17h20.02.685,alternatingbabyloc,2023.2.2,91.7247835663093,
,,,,,,,,242.52583660399978,32,hands-56.jpg,243.02633437800068,bb97,6,vpnl,2024-02-10_17h20.02.685,alternatingbabyloc,2023.2.2,91.7247835663093,
,,,,,,,,243.02633437800068,33,scenes-49.jpg,,bb97,6,vpnl,2024-02-10_17h20.02.685,alternatingbabyloc,2023.2.2,91.7247835663093,
,,,,,,,,243.52565066300122,33,scenes-50.jpg,,bb97,6,vpnl,2024-02-10_17h20.02.685,alternatingbabyloc,2023.2.2,91.7247835663093,
,,,,,,,,244.02602747000128,33,scenes-51.jpg,,bb97,6,vpnl,2024-02-10_17h20.02.685,alternatingbabyloc,2023.2.2,91.7247835663093,
,,,,,,,,244.52764255500006,33,scenes-52.jpg,,bb97,6,vpnl,2024-02-10_17h20.02.685,alternatingbabyloc,2023.2.2,91.7247835663093,
,,,,,,,,245.04244004199973,33,scenes-53.jpg,,bb97,6,vpnl,2024-02-10_17h20.02.685,alternatingbabyloc,2023.2.2,91.7247835663093,
,,,,,,,,245.5425131539996,33,scenes-54.jpg,,bb97,6,vpnl,2024-02-10_17h20.02.685,alternatingbabyloc,2023.2.2,91.7247835663093,
,,,,,,,,246.0427895089997,33,scenes-55.jpg,,bb97,6,vpnl,2024-02-10_17h20.02.685,alternatingbabyloc,2023.2.2,91.7247835663093,
,,,,,,,,246.52487899600055,33,scenes-56.jpg,247.0248499870013,bb97,6,vpnl,2024-02-10_17h20.02.685,alternatingbabyloc,2023.2.2,91.7247835663093,
,,,,,,,,247.0248499870013,34,blank-57.jpg,247.5255661070005,bb97,6,vpnl,2024-02-10_17h20.02.685,alternatingbabyloc,2023.2.2,91.7247835663093,
,,,,,,,,247.5255661070005,34,blank-58.jpg,,bb97,6,vpnl,2024-02-10_17h20.02.685,alternatingbabyloc,2023.2.2,91.7247835663093,
,,,,,,,,248.02551049400063,34,blank-59.jpg,248.52534693300004,bb97,6,vpnl,2024-02-10_17h20.02.685,alternatingbabyloc,2023.2.2,91.7247835663093,
,,,,,,,,248.52534693300004,34,blank-60.jpg,249.0251953120005,bb97,6,vpnl,2024-02-10_17h20.02.685,alternatingbabyloc,2023.2.2,91.7247835663093,
,,,,,,,,249.0251953120005,34,blank-61.jpg,,bb97,6,vpnl,2024-02-10_17h20.02.685,alternatingbabyloc,2023.2.2,91.7247835663093,
,,,,,,,,249.52594006400068,34,blank-62.jpg,250.0255406010001,bb97,6,vpnl,2024-02-10_17h20.02.685,alternatingbabyloc,2023.2.2,91.7247835663093,
,,,,,,,,250.0255406010001,34,blank-63.jpg,250.5255465400005,bb97,6,vpnl,2024-02-10_17h20.02.685,alternatingbabyloc,2023.2.2,91.7247835663093,
,,,,,,,,250.5255465400005,34,blank-64.jpg,251.02496285500092,bb97,6,vpnl,2024-02-10_17h20.02.685,alternatingbabyloc,2023.2.2,91.7247835663093,
,,,,,,,,251.02496285500092,35,cars-49.jpg,251.5253077260004,bb97,6,vpnl,2024-02-10_17h20.02.685,alternatingbabyloc,2023.2.2,91.7247835663093,
,,,,,,,,251.5253077260004,35,cars-50.jpg,252.02559651000047,bb97,6,vpnl,2024-02-10_17h20.02.685,alternatingbabyloc,2023.2.2,91.7247835663093,
,,,,,,,,252.02559651000047,35,cars-51.jpg,252.52555822700015,bb97,6,vpnl,2024-02-10_17h20.02.685,alternatingbabyloc,2023.2.2,91.7247835663093,
,,,,,,,,252.52555822700015,35,cars-52.jpg,253.024943507,bb97,6,vpnl,2024-02-10_17h20.02.685,alternatingbabyloc,2023.2.2,91.7247835663093,
,,,,,,,,253.024943507,35,cars-53.jpg,253.5259513680012,bb97,6,vpnl,2024-02-10_17h20.02.685,alternatingbabyloc,2023.2.2,91.7247835663093,
,,,,,,,,253.5259513680012,35,cars-54.jpg,254.02548542499972,bb97,6,vpnl,2024-02-10_17h20.02.685,alternatingbabyloc,2023.2.2,91.7247835663093,
,,,,,,,,254.02548542499972,35,cars-55.jpg,254.52525927900024,bb97,6,vpnl,2024-02-10_17h20.02.685,alternatingbabyloc,2023.2.2,91.7247835663093,
,,,,,,,,254.52525927900024,35,cars-56.jpg,255.02496399400115,bb97,6,vpnl,2024-02-10_17h20.02.685,alternatingbabyloc,2023.2.2,91.7247835663093,
,,,,,,,,255.02496399400115,36,faces-49.jpg,255.52555782499985,bb97,6,vpnl,2024-02-10_17h20.02.685,alternatingbabyloc,2023.2.2,91.7247835663093,
,,,,,,,,255.52555782499985,36,faces-50.jpg,256.02500531999976,bb97,6,vpnl,2024-02-10_17h20.02.685,alternatingbabyloc,2023.2.2,91.7247835663093,
,,,,,,,,256.02500531999976,36,faces-51.jpg,256.5259108099999,bb97,6,vpnl,2024-02-10_17h20.02.685,alternatingbabyloc,2023.2.2,91.7247835663093,
,,,,,,,,256.5259108099999,36,faces-52.jpg,257.02505737499996,bb97,6,vpnl,2024-02-10_17h20.02.685,alternatingbabyloc,2023.2.2,91.7247835663093,
,,,,,,,,257.02505737499996,36,faces-53.jpg,257.52602054400086,bb97,6,vpnl,2024-02-10_17h20.02.685,alternatingbabyloc,2023.2.2,91.7247835663093,
,,,,,,,,257.52602054400086,36,faces-54.jpg,258.0255535610013,bb97,6,vpnl,2024-02-10_17h20.02.685,alternatingbabyloc,2023.2.2,91.7247835663093,
,,,,,,,,258.0255535610013,36,faces-55.jpg,258.5248695070004,bb97,6,vpnl,2024-02-10_17h20.02.685,alternatingbabyloc,2023.2.2,91.7247835663093,
,,,,,,,,258.5248695070004,36,faces-56.jpg,259.02522870400026,bb97,6,vpnl,2024-02-10_17h20.02.685,alternatingbabyloc,2023.2.2,91.7247835663093,
,,,,,,,,259.02522870400026,37,hands-57.jpg,259.5254735030012,bb97,6,vpnl,2024-02-10_17h20.02.685,alternatingbabyloc,2023.2.2,91.7247835663093,
,,,,,,,,259.5254735030012,37,hands-58.jpg,260.02492717800124,bb97,6,vpnl,2024-02-10_17h20.02.685,alternatingbabyloc,2023.2.2,91.7247835663093,
,,,,,,,,260.02492717800124,37,hands-59.jpg,,bb97,6,vpnl,2024-02-10_17h20.02.685,alternatingbabyloc,2023.2.2,91.7247835663093,
,,,,,,,,260.52542660200015,37,hands-60.jpg,261.0253768319999,bb97,6,vpnl,2024-02-10_17h20.02.685,alternatingbabyloc,2023.2.2,91.7247835663093,
,,,,,,,,261.0253768319999,37,hands-61.jpg,261.52480164900044,bb97,6,vpnl,2024-02-10_17h20.02.685,alternatingbabyloc,2023.2.2,91.7247835663093,
,,,,,,,,261.52480164900044,37,hands-62.jpg,262.02562158900037,bb97,6,vpnl,2024-02-10_17h20.02.685,alternatingbabyloc,2023.2.2,91.7247835663093,
,,,,,,,,262.02562158900037,37,hands-63.jpg,262.52528474000064,bb97,6,vpnl,2024-02-10_17h20.02.685,alternatingbabyloc,2023.2.2,91.7247835663093,
,,,,,,,,262.52528474000064,37,hands-64.jpg,263.0287279309996,bb97,6,vpnl,2024-02-10_17h20.02.685,alternatingbabyloc,2023.2.2,91.7247835663093,
,,,,,,,,263.0287279309996,38,cars-57.jpg,,bb97,6,vpnl,2024-02-10_17h20.02.685,alternatingbabyloc,2023.2.2,91.7247835663093,
,,,,,,,,263.52509560600083,38,cars-58.jpg,264.02579166100077,bb97,6,vpnl,2024-02-10_17h20.02.685,alternatingbabyloc,2023.2.2,91.7247835663093,
,,,,,,,,264.02579166100077,38,cars-59.jpg,,bb97,6,vpnl,2024-02-10_17h20.02.685,alternatingbabyloc,2023.2.2,91.7247835663093,
,,,,,,,,264.5246072480004,38,cars-60.jpg,265.0257560549999,bb97,6,vpnl,2024-02-10_17h20.02.685,alternatingbabyloc,2023.2.2,91.7247835663093,
,,,,,,,,265.0257560549999,38,cars-61.jpg,265.5263512170004,bb97,6,vpnl,2024-02-10_17h20.02.685,alternatingbabyloc,2023.2.2,91.7247835663093,
,,,,,,,,265.5263512170004,38,cars-62.jpg,266.0247617879995,bb97,6,vpnl,2024-02-10_17h20.02.685,alternatingbabyloc,2023.2.2,91.7247835663093,
,,,,,,,,266.0247617879995,38,cars-63.jpg,266.52574409000044,bb97,6,vpnl,2024-02-10_17h20.02.685,alternatingbabyloc,2023.2.2,91.7247835663093,
,,,,,,,,266.52574409000044,38,cars-64.jpg,,bb97,6,vpnl,2024-02-10_17h20.02.685,alternatingbabyloc,2023.2.2,91.7247835663093,
,,,,,,,,267.02496980199976,39,faces-57.jpg,267.5254792300002,bb97,6,vpnl,2024-02-10_17h20.02.685,alternatingbabyloc,2023.2.2,91.7247835663093,
,,,,,,,,267.5254792300002,39,faces-58.jpg,268.0257871720005,bb97,6,vpnl,2024-02-10_17h20.02.685,alternatingbabyloc,2023.2.2,91.7247835663093,
,,,,,,,,268.0257871720005,39,faces-59.jpg,,bb97,6,vpnl,2024-02-10_17h20.02.685,alternatingbabyloc,2023.2.2,91.7247835663093,
,,,,,,,,268.54146486900027,39,faces-60.jpg,,bb97,6,vpnl,2024-02-10_17h20.02.685,alternatingbabyloc,2023.2.2,91.7247835663093,
,,,,,,,,269.042624695001,39,faces-61.jpg,,bb97,6,vpnl,2024-02-10_17h20.02.685,alternatingbabyloc,2023.2.2,91.7247835663093,
,,,,,,,,269.54224504600097,39,faces-62.jpg,,bb97,6,vpnl,2024-02-10_17h20.02.685,alternatingbabyloc,2023.2.2,91.7247835663093,
,,,,,,,,270.0256533210013,39,faces-63.jpg,270.5257495090009,bb97,6,vpnl,2024-02-10_17h20.02.685,alternatingbabyloc,2023.2.2,91.7247835663093,
,,,,,,,,270.5257495090009,39,faces-64.jpg,,bb97,6,vpnl,2024-02-10_17h20.02.685,alternatingbabyloc,2023.2.2,91.7247835663093,
,,,,,,,,271.04128378099995,40,blank-65.jpg,,bb97,6,vpnl,2024-02-10_17h20.02.685,alternatingbabyloc,2023.2.2,91.7247835663093,
,,,,,,,,271.5422769760007,40,blank-66.jpg,,bb97,6,vpnl,2024-02-10_17h20.02.685,alternatingbabyloc,2023.2.2,91.7247835663093,
,,,,,,,,272.04505857000004,40,blank-67.jpg,,bb97,6,vpnl,2024-02-10_17h20.02.685,alternatingbabyloc,2023.2.2,91.7247835663093,
,,,,,,,,272.54242833900025,40,blank-68.jpg,,bb97,6,vpnl,2024-02-10_17h20.02.685,alternatingbabyloc,2023.2.2,91.7247835663093,
,,,,,,,,273.04197396900054,40,blank-69.jpg,,bb97,6,vpnl,2024-02-10_17h20.02.685,alternatingbabyloc,2023.2.2,91.7247835663093,
,,,,,,,,273.5413467470007,40,blank-70.jpg,,bb97,6,vpnl,2024-02-10_17h20.02.685,alternatingbabyloc,2023.2.2,91.7247835663093,
,,,,,,,,274.0419442849998,40,blank-71.jpg,,bb97,6,vpnl,2024-02-10_17h20.02.685,alternatingbabyloc,2023.2.2,91.7247835663093,
,,,,,,,,274.5443666940009,40,blank-72.jpg,,bb97,6,vpnl,2024-02-10_17h20.02.685,alternatingbabyloc,2023.2.2,91.7247835663093,
,,,,,,,,275.04136977800044,41,scenes-57.jpg,,bb97,6,vpnl,2024-02-10_17h20.02.685,alternatingbabyloc,2023.2.2,91.7247835663093,
,,,,,,,,275.5419527260001,41,scenes-58.jpg,,bb97,6,vpnl,2024-02-10_17h20.02.685,alternatingbabyloc,2023.2.2,91.7247835663093,
,,,,,,,,276.0411289149997,41,scenes-59.jpg,,bb97,6,vpnl,2024-02-10_17h20.02.685,alternatingbabyloc,2023.2.2,91.7247835663093,
,,,,,,,,276.54221773500103,41,scenes-60.jpg,,bb97,6,vpnl,2024-02-10_17h20.02.685,alternatingbabyloc,2023.2.2,91.7247835663093,
,,,,,,,,277.0422111250009,41,scenes-61.jpg,,bb97,6,vpnl,2024-02-10_17h20.02.685,alternatingbabyloc,2023.2.2,91.7247835663093,
,,,,,,,,277.5411835089999,41,scenes-62.jpg,,bb97,6,vpnl,2024-02-10_17h20.02.685,alternatingbabyloc,2023.2.2,91.7247835663093,
,,,,,,,,278.04223256300065,41,scenes-63.jpg,,bb97,6,vpnl,2024-02-10_17h20.02.685,alternatingbabyloc,2023.2.2,91.7247835663093,
,,,,,,,,278.54224049200093,41,scenes-64.jpg,,bb97,6,vpnl,2024-02-10_17h20.02.685,alternatingbabyloc,2023.2.2,91.7247835663093,
,,,,,,,,279.04117701200084,42,cars-65.jpg,,bb97,6,vpnl,2024-02-10_17h20.02.685,alternatingbabyloc,2023.2.2,91.7247835663093,
,,,,,,,,279.54222707900044,42,cars-66.jpg,,bb97,6,vpnl,2024-02-10_17h20.02.685,alternatingbabyloc,2023.2.2,91.7247835663093,
,,,,,,,,280.0420239260002,42,cars-67.jpg,,bb97,6,vpnl,2024-02-10_17h20.02.685,alternatingbabyloc,2023.2.2,91.7247835663093,
,,,,,,,,280.54116120100116,42,cars-68.jpg,,bb97,6,vpnl,2024-02-10_17h20.02.685,alternatingbabyloc,2023.2.2,91.7247835663093,
,,,,,,,,281.04189158400004,42,cars-69.jpg,,bb97,6,vpnl,2024-02-10_17h20.02.685,alternatingbabyloc,2023.2.2,91.7247835663093,
,,,,,,,,281.54184286300006,42,cars-70.jpg,,bb97,6,vpnl,2024-02-10_17h20.02.685,alternatingbabyloc,2023.2.2,91.7247835663093,
,,,,,,,,282.04103834000125,42,cars-71.jpg,,bb97,6,vpnl,2024-02-10_17h20.02.685,alternatingbabyloc,2023.2.2,91.7247835663093,
,,,,,,,,282.5419037869997,42,cars-72.jpg,,bb97,6,vpnl,2024-02-10_17h20.02.685,alternatingbabyloc,2023.2.2,91.7247835663093,
,,,,,,,,283.041879163,43,blank-73.jpg,,bb97,6,vpnl,2024-02-10_17h20.02.685,alternatingbabyloc,2023.2.2,91.7247835663093,
,,,,,,,,283.54127857800086,43,blank-74.jpg,,bb97,6,vpnl,2024-02-10_17h20.02.685,alternatingbabyloc,2023.2.2,91.7247835663093,
,,,,,,,,284.0419469690005,43,blank-75.jpg,,bb97,6,vpnl,2024-02-10_17h20.02.685,alternatingbabyloc,2023.2.2,91.7247835663093,
,,,,,,,,284.5421950330001,43,blank-76.jpg,,bb97,6,vpnl,2024-02-10_17h20.02.685,alternatingbabyloc,2023.2.2,91.7247835663093,
,,,,,,,,285.042342656001,43,blank-77.jpg,,bb97,6,vpnl,2024-02-10_17h20.02.685,alternatingbabyloc,2023.2.2,91.7247835663093,
,,,,,,,,285.5411420319997,43,blank-78.jpg,,bb97,6,vpnl,2024-02-10_17h20.02.685,alternatingbabyloc,2023.2.2,91.7247835663093,
,,,,,,,,286.04193036499964,43,blank-79.jpg,,bb97,6,vpnl,2024-02-10_17h20.02.685,alternatingbabyloc,2023.2.2,91.7247835663093,
,,,,,,,,286.5420273640011,43,blank-80.jpg,,bb97,6,vpnl,2024-02-10_17h20.02.685,alternatingbabyloc,2023.2.2,91.7247835663093,
,,,,,,,,287.0412168390012,44,scenes-65.jpg,,bb97,6,vpnl,2024-02-10_17h20.02.685,alternatingbabyloc,2023.2.2,91.7247835663093,
,,,,,,,,287.5418097319998,44,scenes-66.jpg,,bb97,6,vpnl,2024-02-10_17h20.02.685,alternatingbabyloc,2023.2.2,91.7247835663093,
,,,,,,,,288.04107229500005,44,scenes-67.jpg,,bb97,6,vpnl,2024-02-10_17h20.02.685,alternatingbabyloc,2023.2.2,91.7247835663093,
,,,,,,,,288.54203535099987,44,scenes-68.jpg,,bb97,6,vpnl,2024-02-10_17h20.02.685,alternatingbabyloc,2023.2.2,91.7247835663093,
,,,,,,,,289.02510999600054,44,scenes-69.jpg,289.52465914499953,bb97,6,vpnl,2024-02-10_17h20.02.685,alternatingbabyloc,2023.2.2,91.7247835663093,
,,,,,,,,289.52465914499953,44,scenes-70.jpg,290.02529232100096,bb97,6,vpnl,2024-02-10_17h20.02.685,alternatingbabyloc,2023.2.2,91.7247835663093,
,,,,,,,,290.02529232100096,44,scenes-71.jpg,290.5244474880001,bb97,6,vpnl,2024-02-10_17h20.02.685,alternatingbabyloc,2023.2.2,91.7247835663093,
,,,,,,,,290.5244474880001,44,scenes-72.jpg,291.02409566700044,bb97,6,vpnl,2024-02-10_17h20.02.685,alternatingbabyloc,2023.2.2,91.7247835663093,
,,,,,,,,291.02409566700044,45,hands-65.jpg,291.52461736700025,bb97,6,vpnl,2024-02-10_17h20.02.685,alternatingbabyloc,2023.2.2,91.7247835663093,
,,,,,,,,291.52461736700025,45,hands-66.jpg,292.02419037100117,bb97,6,vpnl,2024-02-10_17h20.02.685,alternatingbabyloc,2023.2.2,91.7247835663093,
,,,,,,,,292.02419037100117,45,hands-67.jpg,292.5249643269999,bb97,6,vpnl,2024-02-10_17h20.02.685,alternatingbabyloc,2023.2.2,91.7247835663093,
,,,,,,,,292.5249643269999,45,hands-68.jpg,293.0242458020002,bb97,6,vpnl,2024-02-10_17h20.02.685,alternatingbabyloc,2023.2.2,91.7247835663093,
,,,,,,,,293.0242458020002,45,hands-69.jpg,293.5247526710009,bb97,6,vpnl,2024-02-10_17h20.02.685,alternatingbabyloc,2023.2.2,91.7247835663093,
,,,,,,,,293.5247526710009,45,hands-70.jpg,294.02431558399985,bb97,6,vpnl,2024-02-10_17h20.02.685,alternatingbabyloc,2023.2.2,91.7247835663093,
,,,,,,,,294.02431558399985,45,hands-71.jpg,294.5248056239998,bb97,6,vpnl,2024-02-10_17h20.02.685,alternatingbabyloc,2023.2.2,91.7247835663093,
,,,,,,,,294.5248056239998,45,hands-72.jpg,295.0244485200001,bb97,6,vpnl,2024-02-10_17h20.02.685,alternatingbabyloc,2023.2.2,91.7247835663093,
,,,,,,,,295.0244485200001,46,faces-65.jpg,295.52450448000127,bb97,6,vpnl,2024-02-10_17h20.02.685,alternatingbabyloc,2023.2.2,91.7247835663093,
,,,,,,,,295.52450448000127,46,faces-66.jpg,296.0244299820006,bb97,6,vpnl,2024-02-10_17h20.02.685,alternatingbabyloc,2023.2.2,91.7247835663093,
,,,,,,,,296.0244299820006,46,faces-67.jpg,296.52447150900116,bb97,6,vpnl,2024-02-10_17h20.02.685,alternatingbabyloc,2023.2.2,91.7247835663093,
,,,,,,,,296.52447150900116,46,faces-68.jpg,297.0280972970013,bb97,6,vpnl,2024-02-10_17h20.02.685,alternatingbabyloc,2023.2.2,91.7247835663093,
,,,,,,,,297.0280972970013,46,faces-69.jpg,,bb97,6,vpnl,2024-02-10_17h20.02.685,alternatingbabyloc,2023.2.2,91.7247835663093,
,,,,,,,,297.5417115279997,46,faces-70.jpg,,bb97,6,vpnl,2024-02-10_17h20.02.685,alternatingbabyloc,2023.2.2,91.7247835663093,
,,,,,,,,298.0434770539996,46,faces-71.jpg,,bb97,6,vpnl,2024-02-10_17h20.02.685,alternatingbabyloc,2023.2.2,91.7247835663093,
,,,,,,,,298.54197986300096,46,faces-72.jpg,,bb97,6,vpnl,2024-02-10_17h20.02.685,alternatingbabyloc,2023.2.2,91.7247835663093,
,,,,,,,,299.0411823880004,47,scenes-73.jpg,,bb97,6,vpnl,2024-02-10_17h20.02.685,alternatingbabyloc,2023.2.2,91.7247835663093,
,,,,,,,,299.54097387299953,47,scenes-74.jpg,,bb97,6,vpnl,2024-02-10_17h20.02.685,alternatingbabyloc,2023.2.2,91.7247835663093,
,,,,,,,,300.04108506600096,47,scenes-75.jpg,,bb97,6,vpnl,2024-02-10_17h20.02.685,alternatingbabyloc,2023.2.2,91.7247835663093,
,,,,,,,,300.5412739479998,47,scenes-76.jpg,,bb97,6,vpnl,2024-02-10_17h20.02.685,alternatingbabyloc,2023.2.2,91.7247835663093,
,,,,,,,,301.04101425299996,47,scenes-77.jpg,,bb97,6,vpnl,2024-02-10_17h20.02.685,alternatingbabyloc,2023.2.2,91.7247835663093,
,,,,,,,,301.524765903001,47,scenes-78.jpg,302.02781172100003,bb97,6,vpnl,2024-02-10_17h20.02.685,alternatingbabyloc,2023.2.2,91.7247835663093,
,,,,,,,,302.02781172100003,47,scenes-79.jpg,,bb97,6,vpnl,2024-02-10_17h20.02.685,alternatingbabyloc,2023.2.2,91.7247835663093,
,,,,,,,,302.5405313200008,47,scenes-80.jpg,,bb97,6,vpnl,2024-02-10_17h20.02.685,alternatingbabyloc,2023.2.2,91.7247835663093,
,,,,,,,,303.04110255900014,48,blank-81.jpg,,bb97,6,vpnl,2024-02-10_17h20.02.685,alternatingbabyloc,2023.2.2,91.7247835663093,
,,,,,,,,303.5408120510001,48,blank-82.jpg,,bb97,6,vpnl,2024-02-10_17h20.02.685,alternatingbabyloc,2023.2.2,91.7247835663093,
,,,,,,,,304.0409009060004,48,blank-83.jpg,,bb97,6,vpnl,2024-02-10_17h20.02.685,alternatingbabyloc,2023.2.2,91.7247835663093,
,,,,,,,,304.5409918540008,48,blank-84.jpg,,bb97,6,vpnl,2024-02-10_17h20.02.685,alternatingbabyloc,2023.2.2,91.7247835663093,
,,,,,,,,305.04079896000076,48,blank-85.jpg,,bb97,6,vpnl,2024-02-10_17h20.02.685,alternatingbabyloc,2023.2.2,91.7247835663093,
,,,,,,,,305.5415433140006,48,blank-86.jpg,,bb97,6,vpnl,2024-02-10_17h20.02.685,alternatingbabyloc,2023.2.2,91.7247835663093,
,,,,,,,,306.04144756999995,48,blank-87.jpg,,bb97,6,vpnl,2024-02-10_17h20.02.685,alternatingbabyloc,2023.2.2,91.7247835663093,
,,,,,,,,306.5412763229997,48,blank-88.jpg,,bb97,6,vpnl,2024-02-10_17h20.02.685,alternatingbabyloc,2023.2.2,91.7247835663093,
,,,,,,,,307.0412371149996,49,cars-73.jpg,,bb97,6,vpnl,2024-02-10_17h20.02.685,alternatingbabyloc,2023.2.2,91.7247835663093,
,,,,,,,,307.54067292200125,49,cars-74.jpg,,bb97,6,vpnl,2024-02-10_17h20.02.685,alternatingbabyloc,2023.2.2,91.7247835663093,
,,,,,,,,308.04120072000114,49,cars-75.jpg,,bb97,6,vpnl,2024-02-10_17h20.02.685,alternatingbabyloc,2023.2.2,91.7247835663093,
,,,,,,,,308.5429785039996,49,cars-76.jpg,,bb97,6,vpnl,2024-02-10_17h20.02.685,alternatingbabyloc,2023.2.2,91.7247835663093,
,,,,,,,,309.0408945039999,49,cars-77.jpg,,bb97,6,vpnl,2024-02-10_17h20.02.685,alternatingbabyloc,2023.2.2,91.7247835663093,
,,,,,,,,309.541735746001,49,cars-78.jpg,,bb97,6,vpnl,2024-02-10_17h20.02.685,alternatingbabyloc,2023.2.2,91.7247835663093,
,,,,,,,,310.04077515500103,49,cars-79.jpg,,bb97,6,vpnl,2024-02-10_17h20.02.685,alternatingbabyloc,2023.2.2,91.7247835663093,
,,,,,,,,310.54155813000034,49,cars-80.jpg,,bb97,6,vpnl,2024-02-10_17h20.02.685,alternatingbabyloc,2023.2.2,91.7247835663093,
,,,,,,,,311.0412802770006,50,faces-73.jpg,,bb97,6,vpnl,2024-02-10_17h20.02.685,alternatingbabyloc,2023.2.2,91.7247835663093,
,,,,,,,,311.5415730530003,50,faces-74.jpg,,bb97,6,vpnl,2024-02-10_17h20.02.685,alternatingbabyloc,2023.2.2,91.7247835663093,
,,,,,,,,312.04131405500084,50,faces-75.jpg,,bb97,6,vpnl,2024-02-10_17h20.02.685,alternatingbabyloc,2023.2.2,91.7247835663093,
,,,,,,,,312.54160056100045,50,faces-76.jpg,,bb97,6,vpnl,2024-02-10_17h20.02.685,alternatingbabyloc,2023.2.2,91.7247835663093,
,,,,,,,,313.0407148890008,50,faces-77.jpg,,bb97,6,vpnl,2024-02-10_17h20.02.685,alternatingbabyloc,2023.2.2,91.7247835663093,
,,,,,,,,313.5406967660001,50,faces-78.jpg,,bb97,6,vpnl,2024-02-10_17h20.02.685,alternatingbabyloc,2023.2.2,91.7247835663093,
,,,,,,,,314.041529256001,50,faces-79.jpg,,bb97,6,vpnl,2024-02-10_17h20.02.685,alternatingbabyloc,2023.2.2,91.7247835663093,
,,,,,,,,314.54180530800113,50,faces-80.jpg,,bb97,6,vpnl,2024-02-10_17h20.02.685,alternatingbabyloc,2023.2.2,91.7247835663093,
,,,,,,,,315.0406318590012,51,hands-73.jpg,,bb97,6,vpnl,2024-02-10_17h20.02.685,alternatingbabyloc,2023.2.2,91.7247835663093,
,,,,,,,,315.54358882400084,51,hands-74.jpg,,bb97,6,vpnl,2024-02-10_17h20.02.685,alternatingbabyloc,2023.2.2,91.7247835663093,
,,,,,,,,316.0408152880009,51,hands-75.jpg,,bb97,6,vpnl,2024-02-10_17h20.02.685,alternatingbabyloc,2023.2.2,91.7247835663093,
,,,,,,,,316.54061400700084,51,hands-76.jpg,,bb97,6,vpnl,2024-02-10_17h20.02.685,alternatingbabyloc,2023.2.2,91.7247835663093,
,,,,,,,,317.04127901100037,51,hands-77.jpg,,bb97,6,vpnl,2024-02-10_17h20.02.685,alternatingbabyloc,2023.2.2,91.7247835663093,
,,,,,,,,317.5414308670006,51,hands-78.jpg,,bb97,6,vpnl,2024-02-10_17h20.02.685,alternatingbabyloc,2023.2.2,91.7247835663093,
,,,,,,,,318.0417888259999,51,hands-79.jpg,,bb97,6,vpnl,2024-02-10_17h20.02.685,alternatingbabyloc,2023.2.2,91.7247835663093,
,,,,,,,,318.54153970900006,51,hands-80.jpg,,bb97,6,vpnl,2024-02-10_17h20.02.685,alternatingbabyloc,2023.2.2,91.7247835663093,
,,,,,,,,319.0406725940011,52,blank-89.jpg,,bb97,6,vpnl,2024-02-10_17h20.02.685,alternatingbabyloc,2023.2.2,91.7247835663093,
,,,,,,,,319.5406218870012,52,blank-90.jpg,,bb97,6,vpnl,2024-02-10_17h20.02.685,alternatingbabyloc,2023.2.2,91.7247835663093,
,,,,,,,,320.0413244880001,52,blank-91.jpg,,bb97,6,vpnl,2024-02-10_17h20.02.685,alternatingbabyloc,2023.2.2,91.7247835663093,
,,,,,,,,320.5417807070007,52,blank-92.jpg,,bb97,6,vpnl,2024-02-10_17h20.02.685,alternatingbabyloc,2023.2.2,91.7247835663093,
,,,,,,,,321.04057642500084,52,blank-93.jpg,,bb97,6,vpnl,2024-02-10_17h20.02.685,alternatingbabyloc,2023.2.2,91.7247835663093,
,,,,,,,,321.54029395900034,52,blank-94.jpg,,bb97,6,vpnl,2024-02-10_17h20.02.685,alternatingbabyloc,2023.2.2,91.7247835663093,
,,,,,,,,322.04045371699976,52,blank-95.jpg,,bb97,6,vpnl,2024-02-10_17h20.02.685,alternatingbabyloc,2023.2.2,91.7247835663093,
,,,,,,,,322.54033615000117,52,blank-96.jpg,,bb97,6,vpnl,2024-02-10_17h20.02.685,alternatingbabyloc,2023.2.2,91.7247835663093,
,,,,,,,,323.04264571100066,53,faces-81.jpg,,bb97,6,vpnl,2024-02-10_17h20.02.685,alternatingbabyloc,2023.2.2,91.7247835663093,
,,,,,,,,323.54087710299973,53,faces-82.jpg,,bb97,6,vpnl,2024-02-10_17h20.02.685,alternatingbabyloc,2023.2.2,91.7247835663093,
,,,,,,,,324.0404477740012,53,faces-83.jpg,,bb97,6,vpnl,2024-02-10_17h20.02.685,alternatingbabyloc,2023.2.2,91.7247835663093,
,,,,,,,,324.5243569840004,53,faces-84.jpg,,bb97,6,vpnl,2024-02-10_17h20.02.685,alternatingbabyloc,2023.2.2,91.7247835663093,
,,,,,,,,325.02431618800074,53,faces-85.jpg,325.52453901100125,bb97,6,vpnl,2024-02-10_17h20.02.685,alternatingbabyloc,2023.2.2,91.7247835663093,
,,,,,,,,325.52453901100125,53,faces-86.jpg,326.02463541399993,bb97,6,vpnl,2024-02-10_17h20.02.685,alternatingbabyloc,2023.2.2,91.7247835663093,
,,,,,,,,326.02463541399993,53,faces-87.jpg,,bb97,6,vpnl,2024-02-10_17h20.02.685,alternatingbabyloc,2023.2.2,91.7247835663093,
,,,,,,,,326.5242804919999,53,faces-88.jpg,327.02384213299956,bb97,6,vpnl,2024-02-10_17h20.02.685,alternatingbabyloc,2023.2.2,91.7247835663093,
,,,,,,,,327.02384213299956,54,hands-81.jpg,327.52433643600125,bb97,6,vpnl,2024-02-10_17h20.02.685,alternatingbabyloc,2023.2.2,91.7247835663093,
,,,,,,,,327.52433643600125,54,hands-82.jpg,328.02371184799995,bb97,6,vpnl,2024-02-10_17h20.02.685,alternatingbabyloc,2023.2.2,91.7247835663093,
,,,,,,,,328.02371184799995,54,hands-83.jpg,328.52433337,bb97,6,vpnl,2024-02-10_17h20.02.685,alternatingbabyloc,2023.2.2,91.7247835663093,
,,,,,,,,328.52433337,54,hands-84.jpg,329.0236253840012,bb97,6,vpnl,2024-02-10_17h20.02.685,alternatingbabyloc,2023.2.2,91.7247835663093,
,,,,,,,,329.0236253840012,54,hands-85.jpg,329.52358737800023,bb97,6,vpnl,2024-02-10_17h20.02.685,alternatingbabyloc,2023.2.2,91.7247835663093,
,,,,,,,,329.52358737800023,54,hands-86.jpg,330.0246157929996,bb97,6,vpnl,2024-02-10_17h20.02.685,alternatingbabyloc,2023.2.2,91.7247835663093,
,,,,,,,,330.0246157929996,54,hands-87.jpg,330.5235423080012,bb97,6,vpnl,2024-02-10_17h20.02.685,alternatingbabyloc,2023.2.2,91.7247835663093,
,,,,,,,,330.5235423080012,54,hands-88.jpg,331.0262506609997,bb97,6,vpnl,2024-02-10_17h20.02.685,alternatingbabyloc,2023.2.2,91.7247835663093,
,,,,,,,,331.0262506609997,55,scenes-81.jpg,,bb97,6,vpnl,2024-02-10_17h20.02.685,alternatingbabyloc,2023.2.2,91.7247835663093,
,,,,,,,,331.5410553359998,55,scenes-82.jpg,,bb97,6,vpnl,2024-02-10_17h20.02.685,alternatingbabyloc,2023.2.2,91.7247835663093,
,,,,,,,,332.0416894959999,55,scenes-83.jpg,,bb97,6,vpnl,2024-02-10_17h20.02.685,alternatingbabyloc,2023.2.2,91.7247835663093,
,,,,,,,,332.54225932900044,55,scenes-84.jpg,,bb97,6,vpnl,2024-02-10_17h20.02.685,alternatingbabyloc,2023.2.2,91.7247835663093,
,,,,,,,,333.04084314600004,55,scenes-85.jpg,,bb97,6,vpnl,2024-02-10_17h20.02.685,alternatingbabyloc,2023.2.2,91.7247835663093,
,,,,,,,,333.5402348380012,55,scenes-86.jpg,,bb97,6,vpnl,2024-02-10_17h20.02.685,alternatingbabyloc,2023.2.2,91.7247835663093,
,,,,,,,,334.0410103329996,55,scenes-87.jpg,,bb97,6,vpnl,2024-02-10_17h20.02.685,alternatingbabyloc,2023.2.2,91.7247835663093,
,,,,,,,,334.5430807040011,55,scenes-88.jpg,,bb97,6,vpnl,2024-02-10_17h20.02.685,alternatingbabyloc,2023.2.2,91.7247835663093,
,,,,,,,,335.0232680120007,56,cars-81.jpg,335.523807521,bb97,6,vpnl,2024-02-10_17h20.02.685,alternatingbabyloc,2023.2.2,91.7247835663093,
,,,,,,,,335.523807521,56,cars-82.jpg,336.02521971900023,bb97,6,vpnl,2024-02-10_17h20.02.685,alternatingbabyloc,2023.2.2,91.7247835663093,
,,,,,,,,336.02521971900023,56,cars-83.jpg,336.5236674730004,bb97,6,vpnl,2024-02-10_17h20.02.685,alternatingbabyloc,2023.2.2,91.7247835663093,
,,,,,,,,336.5236674730004,56,cars-84.jpg,337.0235368100002,bb97,6,vpnl,2024-02-10_17h20.02.685,alternatingbabyloc,2023.2.2,91.7247835663093,
,,,,,,,,337.0235368100002,56,cars-85.jpg,337.5242932220008,bb97,6,vpnl,2024-02-10_17h20.02.685,alternatingbabyloc,2023.2.2,91.7247835663093,
,,,,,,,,337.5242932220008,56,cars-86.jpg,338.02450506900095,bb97,6,vpnl,2024-02-10_17h20.02.685,alternatingbabyloc,2023.2.2,91.7247835663093,
,,,,,,,,338.02450506900095,56,cars-87.jpg,,bb97,6,vpnl,2024-02-10_17h20.02.685,alternatingbabyloc,2023.2.2,91.7247835663093,
,,,,,,,,338.5400754380007,56,cars-88.jpg,,bb97,6,vpnl,2024-02-10_17h20.02.685,alternatingbabyloc,2023.2.2,91.7247835663093,
,,,,,,,,339.0399241169998,57,scenes-89.jpg,,bb97,6,vpnl,2024-02-10_17h20.02.685,alternatingbabyloc,2023.2.2,91.7247835663093,
,,,,,,,,339.5408780070011,57,scenes-90.jpg,,bb97,6,vpnl,2024-02-10_17h20.02.685,alternatingbabyloc,2023.2.2,91.7247835663093,
,,,,,,,,340.040723307,57,scenes-91.jpg,,bb97,6,vpnl,2024-02-10_17h20.02.685,alternatingbabyloc,2023.2.2,91.7247835663093,
,,,,,,,,340.5403142180003,57,scenes-92.jpg,,bb97,6,vpnl,2024-02-10_17h20.02.685,alternatingbabyloc,2023.2.2,91.7247835663093,
,,,,,,,,341.0403188199998,57,scenes-93.jpg,,bb97,6,vpnl,2024-02-10_17h20.02.685,alternatingbabyloc,2023.2.2,91.7247835663093,
,,,,,,,,341.54005690899976,57,scenes-94.jpg,,bb97,6,vpnl,2024-02-10_17h20.02.685,alternatingbabyloc,2023.2.2,91.7247835663093,
,,,,,,,,342.0403580500006,57,scenes-95.jpg,,bb97,6,vpnl,2024-02-10_17h20.02.685,alternatingbabyloc,2023.2.2,91.7247835663093,
,,,,,,,,342.540009661001,57,scenes-96.jpg,,bb97,6,vpnl,2024-02-10_17h20.02.685,alternatingbabyloc,2023.2.2,91.7247835663093,
,,,,,,,,343.03997459899983,58,faces-89.jpg,,bb97,6,vpnl,2024-02-10_17h20.02.685,alternatingbabyloc,2023.2.2,91.7247835663093,
,,,,,,,,343.540517757001,58,faces-90.jpg,,bb97,6,vpnl,2024-02-10_17h20.02.685,alternatingbabyloc,2023.2.2,91.7247835663093,
,,,,,,,,344.040060618001,58,faces-91.jpg,,bb97,6,vpnl,2024-02-10_17h20.02.685,alternatingbabyloc,2023.2.2,91.7247835663093,
,,,,,,,,344.5400253879998,58,faces-92.jpg,,bb97,6,vpnl,2024-02-10_17h20.02.685,alternatingbabyloc,2023.2.2,91.7247835663093,
,,,,,,,,345.0418162220012,58,faces-93.jpg,,bb97,6,vpnl,2024-02-10_17h20.02.685,alternatingbabyloc,2023.2.2,91.7247835663093,
,,,,,,,,345.54052009500083,58,faces-94.jpg,,bb97,6,vpnl,2024-02-10_17h20.02.685,alternatingbabyloc,2023.2.2,91.7247835663093,
,,,,,,,,346.04011282600004,58,faces-95.jpg,,bb97,6,vpnl,2024-02-10_17h20.02.685,alternatingbabyloc,2023.2.2,91.7247835663093,
,,,,,,,,346.5405983920009,58,faces-96.jpg,,bb97,6,vpnl,2024-02-10_17h20.02.685,alternatingbabyloc,2023.2.2,91.7247835663093,
,,,,,,,,347.0404979520008,59,hands-89.jpg,,bb97,6,vpnl,2024-02-10_17h20.02.685,alternatingbabyloc,2023.2.2,91.7247835663093,
,,,,,,,,347.54059588600103,59,hands-90.jpg,,bb97,6,vpnl,2024-02-10_17h20.02.685,alternatingbabyloc,2023.2.2,91.7247835663093,
,,,,,,,,348.04059063800014,59,hands-91.jpg,,bb97,6,vpnl,2024-02-10_17h20.02.685,alternatingbabyloc,2023.2.2,91.7247835663093,
,,,,,,,,348.5408823890011,59,hands-92.jpg,,bb97,6,vpnl,2024-02-10_17h20.02.685,alternatingbabyloc,2023.2.2,91.7247835663093,
,,,,,,,,349.04092657399997,59,hands-93.jpg,,bb97,6,vpnl,2024-02-10_17h20.02.685,alternatingbabyloc,2023.2.2,91.7247835663093,
,,,,,,,,349.5407139630006,59,hands-94.jpg,,bb97,6,vpnl,2024-02-10_17h20.02.685,alternatingbabyloc,2023.2.2,91.7247835663093,
,,,,,,,,350.0408095120001,59,hands-95.jpg,,bb97,6,vpnl,2024-02-10_17h20.02.685,alternatingbabyloc,2023.2.2,91.7247835663093,
,,,,,,,,350.5408635069998,59,hands-96.jpg,,bb97,6,vpnl,2024-02-10_17h20.02.685,alternatingbabyloc,2023.2.2,91.7247835663093,
,,,,,,,,351.0407309830007,60,blank-97.jpg,,bb97,6,vpnl,2024-02-10_17h20.02.685,alternatingbabyloc,2023.2.2,91.7247835663093,
,,,,,,,,351.54036912500123,60,blank-98.jpg,,bb97,6,vpnl,2024-02-10_17h20.02.685,alternatingbabyloc,2023.2.2,91.7247835663093,
,,,,,,,,352.04069858,60,blank-99.jpg,,bb97,6,vpnl,2024-02-10_17h20.02.685,alternatingbabyloc,2023.2.2,91.7247835663093,
,,,,,,,,352.5405730300008,60,blank-100.jpg,,bb97,6,vpnl,2024-02-10_17h20.02.685,alternatingbabyloc,2023.2.2,91.7247835663093,
,,,,,,,,353.0409755159999,60,blank-101.jpg,,bb97,6,vpnl,2024-02-10_17h20.02.685,alternatingbabyloc,2023.2.2,91.7247835663093,
,,,,,,,,353.54086104400085,60,blank-102.jpg,,bb97,6,vpnl,2024-02-10_17h20.02.685,alternatingbabyloc,2023.2.2,91.7247835663093,
,,,,,,,,354.0234539080011,60,blank-103.jpg,,bb97,6,vpnl,2024-02-10_17h20.02.685,alternatingbabyloc,2023.2.2,91.7247835663093,
,,,,,,,,354.5230733469998,60,blank-104.jpg,355.0236144419996,bb97,6,vpnl,2024-02-10_17h20.02.685,alternatingbabyloc,2023.2.2,91.7247835663093,
,,,,,,,,355.0236144419996,61,cars-89.jpg,355.52469225499954,bb97,6,vpnl,2024-02-10_17h20.02.685,alternatingbabyloc,2023.2.2,91.7247835663093,
,,,,,,,,355.52469225499954,61,cars-90.jpg,356.0232105699997,bb97,6,vpnl,2024-02-10_17h20.02.685,alternatingbabyloc,2023.2.2,91.7247835663093,
,,,,,,,,356.0232105699997,61,cars-91.jpg,356.52312483400055,bb97,6,vpnl,2024-02-10_17h20.02.685,alternatingbabyloc,2023.2.2,91.7247835663093,
,,,,,,,,356.52312483400055,61,cars-92.jpg,357.0231076020009,bb97,6,vpnl,2024-02-10_17h20.02.685,alternatingbabyloc,2023.2.2,91.7247835663093,
,,,,,,,,357.0231076020009,61,cars-93.jpg,357.523227058,bb97,6,vpnl,2024-02-10_17h20.02.685,alternatingbabyloc,2023.2.2,91.7247835663093,
,,,,,,,,357.523227058,61,cars-94.jpg,358.02347328500036,bb97,6,vpnl,2024-02-10_17h20.02.685,alternatingbabyloc,2023.2.2,91.7247835663093,
,,,,,,,,358.02347328500036,61,cars-95.jpg,358.52367130700077,bb97,6,vpnl,2024-02-10_17h20.02.685,alternatingbabyloc,2023.2.2,91.7247835663093,
,,,,,,,,358.52367130700077,61,cars-96.jpg,359.02318028300033,bb97,6,vpnl,2024-02-10_17h20.02.685,alternatingbabyloc,2023.2.2,91.7247835663093,
,,,,,,,,359.02318028300033,62,blank-105.jpg,359.5241484819999,bb97,6,vpnl,2024-02-10_17h20.02.685,alternatingbabyloc,2023.2.2,91.7247835663093,
,,,,,,,,359.5241484819999,62,blank-106.jpg,360.023819131,bb97,6,vpnl,2024-02-10_17h20.02.685,alternatingbabyloc,2023.2.2,91.7247835663093,
,,,,,,,,360.023819131,62,blank-107.jpg,360.52392149300067,bb97,6,vpnl,2024-02-10_17h20.02.685,alternatingbabyloc,2023.2.2,91.7247835663093,
,,,,,,,,360.52392149300067,62,blank-108.jpg,361.02398016500047,bb97,6,vpnl,2024-02-10_17h20.02.685,alternatingbabyloc,2023.2.2,91.7247835663093,
,,,,,,,,361.02398016500047,62,blank-109.jpg,361.5237507840011,bb97,6,vpnl,2024-02-10_17h20.02.685,alternatingbabyloc,2023.2.2,91.7247835663093,
,,,,,,,,361.5237507840011,62,blank-110.jpg,362.02320308900016,bb97,6,vpnl,2024-02-10_17h20.02.685,alternatingbabyloc,2023.2.2,91.7247835663093,
,,,,,,,,362.02320308900016,62,blank-111.jpg,362.52391881100084,bb97,6,vpnl,2024-02-10_17h20.02.685,alternatingbabyloc,2023.2.2,91.7247835663093,
,,,,,,,,362.52391881100084,62,blank-112.jpg,363.0565647889998,bb97,6,vpnl,2024-02-10_17h20.02.685,alternatingbabyloc,2023.2.2,91.7247835663093,
