thisRow.t,notes,waiting_for_trigger_text.started,trigger.started,trigger.keys,trigger.rt,countdown.started,countdown.stopped,trial.stopped,stimuli.started,condition,stim_name,participant,run,user,date,expName,psychopyVersion,frameRate,
,,24.054366442000173,24.054366442000173,t,43.69014928099932,,,,,,,bb97,5,vpnl,2024-02-10_17h13.12.227,alternatingbabyloc,2023.2.2,150.93837709462025,
,,,,,,67.77233175400033,73.81775288499921,49.71507885699975,73.81775288499921,1,blank.mp4,bb97,5,vpnl,2024-02-10_17h13.12.227,alternatingbabyloc,2023.2.2,150.93837709462025,
,,,,,,,,,77.93981678899945,2,grass_1.mp4,bb97,5,vpnl,2024-02-10_17h13.12.227,alternatingbabyloc,2023.2.2,150.93837709462025,
,,,,,,,,,81.93025378600032,3,EC_hands_4.mp4,bb97,5,vpnl,2024-02-10_17h13.12.227,alternatingbabyloc,2023.2.2,150.93837709462025,
,,,,,,,,,85.96773419199963,4,JC_faces_3.mp4,bb97,5,vpnl,2024-02-10_17h13.12.227,alternatingbabyloc,2023.2.2,150.93837709462025,
,,,,,,,,,89.9397912280001,5,blank.mp4,bb97,5,vpnl,2024-02-10_17h13.12.227,alternatingbabyloc,2023.2.2,150.93837709462025,
,,,,,,,,,93.92528886400032,6,blueexcavator_3.mp4,bb97,5,vpnl,2024-02-10_17h13.12.227,alternatingbabyloc,2023.2.2,150.93837709462025,
,,,,,,,,,97.95274241699917,7,blank.mp4,bb97,5,vpnl,2024-02-10_17h13.12.227,alternatingbabyloc,2023.2.2,150.93837709462025,
,,,,,,,,,101.94229297600032,8,JY_faces_1.mp4,bb97,5,vpnl,2024-02-10_17h13.12.227,alternatingbabyloc,2023.2.2,150.93837709462025,
,,,,,,,,,105.9224186219999,9,trees_3.mp4,bb97,5,vpnl,2024-02-10_17h13.12.227,alternatingbabyloc,2023.2.2,150.93837709462025,
,,,,,,,,,109.94855130500036,10,dumptruck8_1.mp4,bb97,5,vpnl,2024-02-10_17h13.12.227,alternatingbabyloc,2023.2.2,150.93837709462025,
,,,,,,,,,113.94569732399941,11,KP_hands_4.mp4,bb97,5,vpnl,2024-02-10_17h13.12.227,alternatingbabyloc,2023.2.2,150.93837709462025,
,,,,,,,,,117.93547547199887,12,SE_faces_2.mp4,bb97,5,vpnl,2024-02-10_17h13.12.227,alternatingbabyloc,2023.2.2,150.93837709462025,
,,,,,,,,,121.92702564399951,13,river_2.mp4,bb97,5,vpnl,2024-02-10_17h13.12.227,alternatingbabyloc,2023.2.2,150.93837709462025,
,,,,,,,,,125.92491663600049,14,DO_hands_2.mp4,bb97,5,vpnl,2024-02-10_17h13.12.227,alternatingbabyloc,2023.2.2,150.93837709462025,
,,,,,,,,,129.95935113199994,15,car7_1.mp4,bb97,5,vpnl,2024-02-10_17h13.12.227,alternatingbabyloc,2023.2.2,150.93837709462025,
,,,,,,,,,133.94430162999925,16,blank.mp4,bb97,5,vpnl,2024-02-10_17h13.12.227,alternatingbabyloc,2023.2.2,150.93837709462025,
,,,,,,,,,137.93331117100024,17,waves_2.mp4,bb97,5,vpnl,2024-02-10_17h13.12.227,alternatingbabyloc,2023.2.2,150.93837709462025,
,,,,,,,,,141.94223396000052,18,blank.mp4,bb97,5,vpnl,2024-02-10_17h13.12.227,alternatingbabyloc,2023.2.2,150.93837709462025,
,,,,,,,,,145.94606370200017,19,BS_hands_3.mp4,bb97,5,vpnl,2024-02-10_17h13.12.227,alternatingbabyloc,2023.2.2,150.93837709462025,
,,,,,,,,,149.9690553119999,20,rccar_1.mp4,bb97,5,vpnl,2024-02-10_17h13.12.227,alternatingbabyloc,2023.2.2,150.93837709462025,
,,,,,,,,,153.96647936800036,21,AX_faces_3.mp4,bb97,5,vpnl,2024-02-10_17h13.12.227,alternatingbabyloc,2023.2.2,150.93837709462025,
,,,,,,,,,157.93752836500062,22,BP_hands_2.mp4,bb97,5,vpnl,2024-02-10_17h13.12.227,alternatingbabyloc,2023.2.2,150.93837709462025,
,,,,,,,,,161.92549264199988,23,HO_faces_3.mp4,bb97,5,vpnl,2024-02-10_17h13.12.227,alternatingbabyloc,2023.2.2,150.93837709462025,
,,,,,,,,,165.95868891300051,24,blank.mp4,bb97,5,vpnl,2024-02-10_17h13.12.227,alternatingbabyloc,2023.2.2,150.93837709462025,
,,,,,,,,,169.96423715699893,25,car2_1.mp4,bb97,5,vpnl,2024-02-10_17h13.12.227,alternatingbabyloc,2023.2.2,150.93837709462025,
,,,,,,,,,173.9447760359999,26,forest_1.mp4,bb97,5,vpnl,2024-02-10_17h13.12.227,alternatingbabyloc,2023.2.2,150.93837709462025,
,,,,,,,,,177.93888090499968,27,car9_1.mp4,bb97,5,vpnl,2024-02-10_17h13.12.227,alternatingbabyloc,2023.2.2,150.93837709462025,
,,,,,,,,,181.92196862399942,28,SS_faces_2.mp4,bb97,5,vpnl,2024-02-10_17h13.12.227,alternatingbabyloc,2023.2.2,150.93837709462025,
,,,,,,,,,185.9580707339992,29,sky_1.mp4,bb97,5,vpnl,2024-02-10_17h13.12.227,alternatingbabyloc,2023.2.2,150.93837709462025,
,,,,,,,,,189.97320370200032,30,JO_hands_4.mp4,bb97,5,vpnl,2024-02-10_17h13.12.227,alternatingbabyloc,2023.2.2,150.93837709462025,
,,,,,,,,,193.93707404199995,31,blank.mp4,bb97,5,vpnl,2024-02-10_17h13.12.227,alternatingbabyloc,2023.2.2,150.93837709462025,
,,,,,,,,,197.94118711699957,32,car3_1.mp4,bb97,5,vpnl,2024-02-10_17h13.12.227,alternatingbabyloc,2023.2.2,150.93837709462025,
,,,,,,,,,201.9222372919994,33,JO_faces_3.mp4,bb97,5,vpnl,2024-02-10_17h13.12.227,alternatingbabyloc,2023.2.2,150.93837709462025,
,,,,,,,,,205.95753671400053,34,shore_4.mp4,bb97,5,vpnl,2024-02-10_17h13.12.227,alternatingbabyloc,2023.2.2,150.93837709462025,
,,,,,,,,,209.979348588,35,blank.mp4,bb97,5,vpnl,2024-02-10_17h13.12.227,alternatingbabyloc,2023.2.2,150.93837709462025,
,,,,,,,,,213.93172812599914,36,JC_hands_3.mp4,bb97,5,vpnl,2024-02-10_17h13.12.227,alternatingbabyloc,2023.2.2,150.93837709462025,
,,,,,,,,,217.93493509099972,37,dumptruck2_1.mp4,bb97,5,vpnl,2024-02-10_17h13.12.227,alternatingbabyloc,2023.2.2,150.93837709462025,
,,,,,,,,,221.9482093179995,38,IK_faces_3.mp4,bb97,5,vpnl,2024-02-10_17h13.12.227,alternatingbabyloc,2023.2.2,150.93837709462025,
,,,,,,,,,225.95238641799915,39,bigwaterfall_3.mp4,bb97,5,vpnl,2024-02-10_17h13.12.227,alternatingbabyloc,2023.2.2,150.93837709462025,
,,,,,,,,,229.96261332999893,40,IK_hands_3.mp4,bb97,5,vpnl,2024-02-10_17h13.12.227,alternatingbabyloc,2023.2.2,150.93837709462025,
,,,,,,,,,233.935619115,41,blank.mp4,bb97,5,vpnl,2024-02-10_17h13.12.227,alternatingbabyloc,2023.2.2,150.93837709462025,
,,,,,,,,,237.94619847899958,42,snow_1.mp4,bb97,5,vpnl,2024-02-10_17h13.12.227,alternatingbabyloc,2023.2.2,150.93837709462025,
,,,,,,,,,241.9390720299998,43,blank.mp4,bb97,5,vpnl,2024-02-10_17h13.12.227,alternatingbabyloc,2023.2.2,150.93837709462025,
,,,,,,,,,245.91927545399994,44,KW_hands_3.mp4,bb97,5,vpnl,2024-02-10_17h13.12.227,alternatingbabyloc,2023.2.2,150.93837709462025,
,,,,,,,,,249.96179490800023,45,blackexcavator_2.mp4,bb97,5,vpnl,2024-02-10_17h13.12.227,alternatingbabyloc,2023.2.2,150.93837709462025,
,,,,,,,,,253.91309419999925,46,KP_faces_1.mp4,bb97,5,vpnl,2024-02-10_17h13.12.227,alternatingbabyloc,2023.2.2,150.93837709462025,
,,,,,,,,,257.9461805009996,47,car4_1.mp4,bb97,5,vpnl,2024-02-10_17h13.12.227,alternatingbabyloc,2023.2.2,150.93837709462025,
,,,,,,,,,261.9555852129997,48,KW_faces_2.mp4,bb97,5,vpnl,2024-02-10_17h13.12.227,alternatingbabyloc,2023.2.2,150.93837709462025,
,,,,,,,,,265.95689315799973,49,blank.mp4,bb97,5,vpnl,2024-02-10_17h13.12.227,alternatingbabyloc,2023.2.2,150.93837709462025,
,,,,,,,,,269.97193417199924,50,rockystream_1.mp4,bb97,5,vpnl,2024-02-10_17h13.12.227,alternatingbabyloc,2023.2.2,150.93837709462025,
,,,,,,,,,273.91982273400026,51,AX_hands_1.mp4,bb97,5,vpnl,2024-02-10_17h13.12.227,alternatingbabyloc,2023.2.2,150.93837709462025,
,,,,,,,,,277.9661211139992,52,smallwaterfall_3.mp4,bb97,5,vpnl,2024-02-10_17h13.12.227,alternatingbabyloc,2023.2.2,150.93837709462025,
,,,,,,,,,281.9198414090006,53,EC_faces_3.mp4,bb97,5,vpnl,2024-02-10_17h13.12.227,alternatingbabyloc,2023.2.2,150.93837709462025,
,,,,,,,,,285.95778281300045,54,SS_hands_3.mp4,bb97,5,vpnl,2024-02-10_17h13.12.227,alternatingbabyloc,2023.2.2,150.93837709462025,
,,,,,,,,,289.96276870399925,55,car5_1.mp4,bb97,5,vpnl,2024-02-10_17h13.12.227,alternatingbabyloc,2023.2.2,150.93837709462025,
,,,,,,,,,293.9222169179993,56,blank.mp4,bb97,5,vpnl,2024-02-10_17h13.12.227,alternatingbabyloc,2023.2.2,150.93837709462025,
,,,,,,,,,297.93747070099926,57,HO_hands_1.mp4,bb97,5,vpnl,2024-02-10_17h13.12.227,alternatingbabyloc,2023.2.2,150.93837709462025,
,,,,,,,,,301.9500307679991,58,blank.mp4,bb97,5,vpnl,2024-02-10_17h13.12.227,alternatingbabyloc,2023.2.2,150.93837709462025,
,,,,,,,,,305.94577670499893,59,car1_1.mp4,bb97,5,vpnl,2024-02-10_17h13.12.227,alternatingbabyloc,2023.2.2,150.93837709462025,
,,,,,,,,,309.92890543700014,60,BP_faces_3.mp4,bb97,5,vpnl,2024-02-10_17h13.12.227,alternatingbabyloc,2023.2.2,150.93837709462025,
,,,,,,,,,313.9141457829992,61,volcano_4.mp4,bb97,5,vpnl,2024-02-10_17h13.12.227,alternatingbabyloc,2023.2.2,150.93837709462025,
,,,,,,,,,317.95055320199936,62,blank.mp4,bb97,5,vpnl,2024-02-10_17h13.12.227,alternatingbabyloc,2023.2.2,150.93837709462025,
