thisRow.t,notes,waiting_for_trigger_text.started,trigger.started,trigger.keys,trigger.rt,countdown.started,trial.stopped,stimuli.started,condition,stim_name,stimuli.stopped,participant,run,user,date,expName,psychopyVersion,frameRate,
,,45.58672967800521,45.58672967800521,t,1.8878202509949915,,,,,,,KN,1,vpnl,2023-11-15_21h08.53.037,longbabyloc,2023.2.2,60.069953740292995,
,,,,,,47.51006909699936,7.91668196899991,53.50845818500966,1,blank-1.jpg,,KN,1,vpnl,2023-11-15_21h08.53.037,longbabyloc,2023.2.2,60.069953740292995,
,,,,,,,,54.008562597999116,1,blank-2.jpg,,KN,1,vpnl,2023-11-15_21h08.53.037,longbabyloc,2023.2.2,60.069953740292995,
,,,,,,,,54.50901795600657,1,blank-3.jpg,,KN,1,vpnl,2023-11-15_21h08.53.037,longbabyloc,2023.2.2,60.069953740292995,
,,,,,,,,55.008567349999794,1,blank-4.jpg,,KN,1,vpnl,2023-11-15_21h08.53.037,longbabyloc,2023.2.2,60.069953740292995,
,,,,,,,,55.50914504600223,1,blank-5.jpg,,KN,1,vpnl,2023-11-15_21h08.53.037,longbabyloc,2023.2.2,60.069953740292995,
,,,,,,,,56.00822668900946,1,blank-6.jpg,,KN,1,vpnl,2023-11-15_21h08.53.037,longbabyloc,2023.2.2,60.069953740292995,
,,,,,,,,56.50888349300658,1,blank-7.jpg,,KN,1,vpnl,2023-11-15_21h08.53.037,longbabyloc,2023.2.2,60.069953740292995,
,,,,,,,,57.009065271005966,1,blank-8.jpg,,KN,1,vpnl,2023-11-15_21h08.53.037,longbabyloc,2023.2.2,60.069953740292995,
,,,,,,,,57.50870470100199,2,scenes-1.jpg,,KN,1,vpnl,2023-11-15_21h08.53.037,longbabyloc,2023.2.2,60.069953740292995,
,,,,,,,,58.00876502900792,2,scenes-2.jpg,,KN,1,vpnl,2023-11-15_21h08.53.037,longbabyloc,2023.2.2,60.069953740292995,
,,,,,,,,58.508299774999614,2,scenes-3.jpg,59.007592105001095,KN,1,vpnl,2023-11-15_21h08.53.037,longbabyloc,2023.2.2,60.069953740292995,
,,,,,,,,59.007592105001095,2,scenes-4.jpg,,KN,1,vpnl,2023-11-15_21h08.53.037,longbabyloc,2023.2.2,60.069953740292995,
,,,,,,,,59.5095385970053,2,scenes-5.jpg,,KN,1,vpnl,2023-11-15_21h08.53.037,longbabyloc,2023.2.2,60.069953740292995,
,,,,,,,,60.02114183999947,2,scenes-6.jpg,,KN,1,vpnl,2023-11-15_21h08.53.037,longbabyloc,2023.2.2,60.069953740292995,
,,,,,,,,60.520510030008154,2,scenes-7.jpg,,KN,1,vpnl,2023-11-15_21h08.53.037,longbabyloc,2023.2.2,60.069953740292995,
,,,,,,,,61.02037767300499,2,scenes-8.jpg,,KN,1,vpnl,2023-11-15_21h08.53.037,longbabyloc,2023.2.2,60.069953740292995,
,,,,,,,,61.52042198300478,3,hands-1.jpg,,KN,1,vpnl,2023-11-15_21h08.53.037,longbabyloc,2023.2.2,60.069953740292995,
,,,,,,,,62.02078028699907,3,hands-2.jpg,,KN,1,vpnl,2023-11-15_21h08.53.037,longbabyloc,2023.2.2,60.069953740292995,
,,,,,,,,62.52082235200214,3,hands-3.jpg,,KN,1,vpnl,2023-11-15_21h08.53.037,longbabyloc,2023.2.2,60.069953740292995,
,,,,,,,,63.02167784899939,3,hands-4.jpg,,KN,1,vpnl,2023-11-15_21h08.53.037,longbabyloc,2023.2.2,60.069953740292995,
,,,,,,,,63.520285685997806,3,hands-5.jpg,,KN,1,vpnl,2023-11-15_21h08.53.037,longbabyloc,2023.2.2,60.069953740292995,
,,,,,,,,64.02076547101024,3,hands-6.jpg,,KN,1,vpnl,2023-11-15_21h08.53.037,longbabyloc,2023.2.2,60.069953740292995,
,,,,,,,,64.52099648400326,3,hands-7.jpg,,KN,1,vpnl,2023-11-15_21h08.53.037,longbabyloc,2023.2.2,60.069953740292995,
,,,,,,,,65.02099822300079,3,hands-8.jpg,,KN,1,vpnl,2023-11-15_21h08.53.037,longbabyloc,2023.2.2,60.069953740292995,
,,,,,,,,65.52071169200644,4,blank-9.jpg,,KN,1,vpnl,2023-11-15_21h08.53.037,longbabyloc,2023.2.2,60.069953740292995,
,,,,,,,,66.02061370199954,4,blank-10.jpg,,KN,1,vpnl,2023-11-15_21h08.53.037,longbabyloc,2023.2.2,60.069953740292995,
,,,,,,,,66.5206406530051,4,blank-11.jpg,,KN,1,vpnl,2023-11-15_21h08.53.037,longbabyloc,2023.2.2,60.069953740292995,
,,,,,,,,67.02058312699955,4,blank-12.jpg,,KN,1,vpnl,2023-11-15_21h08.53.037,longbabyloc,2023.2.2,60.069953740292995,
,,,,,,,,67.52035195801,4,blank-13.jpg,,KN,1,vpnl,2023-11-15_21h08.53.037,longbabyloc,2023.2.2,60.069953740292995,
,,,,,,,,68.02058956000837,4,blank-14.jpg,,KN,1,vpnl,2023-11-15_21h08.53.037,longbabyloc,2023.2.2,60.069953740292995,
,,,,,,,,68.52051594000659,4,blank-15.jpg,,KN,1,vpnl,2023-11-15_21h08.53.037,longbabyloc,2023.2.2,60.069953740292995,
,,,,,,,,69.02056118400651,4,blank-16.jpg,,KN,1,vpnl,2023-11-15_21h08.53.037,longbabyloc,2023.2.2,60.069953740292995,
,,,,,,,,69.52058137400309,5,faces-1.jpg,,KN,1,vpnl,2023-11-15_21h08.53.037,longbabyloc,2023.2.2,60.069953740292995,
,,,,,,,,70.0204044120037,5,faces-2.jpg,,KN,1,vpnl,2023-11-15_21h08.53.037,longbabyloc,2023.2.2,60.069953740292995,
,,,,,,,,70.52052598600858,5,faces-3.jpg,,KN,1,vpnl,2023-11-15_21h08.53.037,longbabyloc,2023.2.2,60.069953740292995,
,,,,,,,,71.02048099100648,5,faces-4.jpg,,KN,1,vpnl,2023-11-15_21h08.53.037,longbabyloc,2023.2.2,60.069953740292995,
,,,,,,,,71.52058693900472,5,faces-5.jpg,,KN,1,vpnl,2023-11-15_21h08.53.037,longbabyloc,2023.2.2,60.069953740292995,
,,,,,,,,72.02035353600513,5,faces-6.jpg,,KN,1,vpnl,2023-11-15_21h08.53.037,longbabyloc,2023.2.2,60.069953740292995,
,,,,,,,,72.52042080000683,5,faces-7.jpg,,KN,1,vpnl,2023-11-15_21h08.53.037,longbabyloc,2023.2.2,60.069953740292995,
,,,,,,,,73.02023966600245,5,faces-8.jpg,,KN,1,vpnl,2023-11-15_21h08.53.037,longbabyloc,2023.2.2,60.069953740292995,
,,,,,,,,73.52021620300366,6,cars-1.jpg,,KN,1,vpnl,2023-11-15_21h08.53.037,longbabyloc,2023.2.2,60.069953740292995,
,,,,,,,,74.02072358000441,6,cars-2.jpg,,KN,1,vpnl,2023-11-15_21h08.53.037,longbabyloc,2023.2.2,60.069953740292995,
,,,,,,,,74.52037287400162,6,cars-3.jpg,,KN,1,vpnl,2023-11-15_21h08.53.037,longbabyloc,2023.2.2,60.069953740292995,
,,,,,,,,75.02038045300287,6,cars-4.jpg,,KN,1,vpnl,2023-11-15_21h08.53.037,longbabyloc,2023.2.2,60.069953740292995,
,,,,,,,,75.52014864199737,6,cars-5.jpg,,KN,1,vpnl,2023-11-15_21h08.53.037,longbabyloc,2023.2.2,60.069953740292995,
,,,,,,,,76.0204124419979,6,cars-6.jpg,,KN,1,vpnl,2023-11-15_21h08.53.037,longbabyloc,2023.2.2,60.069953740292995,
,,,,,,,,76.52066078899952,6,cars-7.jpg,,KN,1,vpnl,2023-11-15_21h08.53.037,longbabyloc,2023.2.2,60.069953740292995,
,,,,,,,,77.02036057600344,6,cars-8.jpg,,KN,1,vpnl,2023-11-15_21h08.53.037,longbabyloc,2023.2.2,60.069953740292995,
,,,,,,,,77.52013833700039,7,hands-9.jpg,,KN,1,vpnl,2023-11-15_21h08.53.037,longbabyloc,2023.2.2,60.069953740292995,
,,,,,,,,78.02049189301033,7,hands-10.jpg,,KN,1,vpnl,2023-11-15_21h08.53.037,longbabyloc,2023.2.2,60.069953740292995,
,,,,,,,,78.52196772000752,7,hands-11.jpg,,KN,1,vpnl,2023-11-15_21h08.53.037,longbabyloc,2023.2.2,60.069953740292995,
,,,,,,,,79.02027566501056,7,hands-12.jpg,,KN,1,vpnl,2023-11-15_21h08.53.037,longbabyloc,2023.2.2,60.069953740292995,
,,,,,,,,79.52032000399777,7,hands-13.jpg,,KN,1,vpnl,2023-11-15_21h08.53.037,longbabyloc,2023.2.2,60.069953740292995,
,,,,,,,,80.02024514701043,7,hands-14.jpg,,KN,1,vpnl,2023-11-15_21h08.53.037,longbabyloc,2023.2.2,60.069953740292995,
,,,,,,,,80.52016444400942,7,hands-15.jpg,,KN,1,vpnl,2023-11-15_21h08.53.037,longbabyloc,2023.2.2,60.069953740292995,
,,,,,,,,81.02006569500372,7,hands-16.jpg,,KN,1,vpnl,2023-11-15_21h08.53.037,longbabyloc,2023.2.2,60.069953740292995,
,,,,,,,,81.52010111500567,8,faces-9.jpg,,KN,1,vpnl,2023-11-15_21h08.53.037,longbabyloc,2023.2.2,60.069953740292995,
,,,,,,,,82.02023191600165,8,faces-10.jpg,,KN,1,vpnl,2023-11-15_21h08.53.037,longbabyloc,2023.2.2,60.069953740292995,
,,,,,,,,82.52057159499964,8,faces-11.jpg,,KN,1,vpnl,2023-11-15_21h08.53.037,longbabyloc,2023.2.2,60.069953740292995,
,,,,,,,,83.02012389400625,8,faces-12.jpg,,KN,1,vpnl,2023-11-15_21h08.53.037,longbabyloc,2023.2.2,60.069953740292995,
,,,,,,,,83.52006585799973,8,faces-13.jpg,,KN,1,vpnl,2023-11-15_21h08.53.037,longbabyloc,2023.2.2,60.069953740292995,
,,,,,,,,84.02005884901155,8,faces-14.jpg,,KN,1,vpnl,2023-11-15_21h08.53.037,longbabyloc,2023.2.2,60.069953740292995,
,,,,,,,,84.52008767701045,8,faces-15.jpg,,KN,1,vpnl,2023-11-15_21h08.53.037,longbabyloc,2023.2.2,60.069953740292995,
,,,,,,,,85.0200985410047,8,faces-16.jpg,,KN,1,vpnl,2023-11-15_21h08.53.037,longbabyloc,2023.2.2,60.069953740292995,
,,,,,,,,85.52004193799803,9,scenes-9.jpg,,KN,1,vpnl,2023-11-15_21h08.53.037,longbabyloc,2023.2.2,60.069953740292995,
,,,,,,,,86.02000812201004,9,scenes-10.jpg,,KN,1,vpnl,2023-11-15_21h08.53.037,longbabyloc,2023.2.2,60.069953740292995,
,,,,,,,,86.52007598199998,9,scenes-11.jpg,,KN,1,vpnl,2023-11-15_21h08.53.037,longbabyloc,2023.2.2,60.069953740292995,
,,,,,,,,87.02008059000946,9,scenes-12.jpg,,KN,1,vpnl,2023-11-15_21h08.53.037,longbabyloc,2023.2.2,60.069953740292995,
,,,,,,,,87.52006221200281,9,scenes-13.jpg,,KN,1,vpnl,2023-11-15_21h08.53.037,longbabyloc,2023.2.2,60.069953740292995,
,,,,,,,,88.0200746620103,9,scenes-14.jpg,,KN,1,vpnl,2023-11-15_21h08.53.037,longbabyloc,2023.2.2,60.069953740292995,
,,,,,,,,88.52011217600375,9,scenes-15.jpg,,KN,1,vpnl,2023-11-15_21h08.53.037,longbabyloc,2023.2.2,60.069953740292995,
,,,,,,,,89.01997128000949,9,scenes-16.jpg,,KN,1,vpnl,2023-11-15_21h08.53.037,longbabyloc,2023.2.2,60.069953740292995,
,,,,,,,,89.5199659330101,10,cars-9.jpg,,KN,1,vpnl,2023-11-15_21h08.53.037,longbabyloc,2023.2.2,60.069953740292995,
,,,,,,,,90.0199578210013,10,cars-10.jpg,,KN,1,vpnl,2023-11-15_21h08.53.037,longbabyloc,2023.2.2,60.069953740292995,
,,,,,,,,90.51993992000644,10,cars-11.jpg,,KN,1,vpnl,2023-11-15_21h08.53.037,longbabyloc,2023.2.2,60.069953740292995,
,,,,,,,,91.02014068501012,10,cars-12.jpg,,KN,1,vpnl,2023-11-15_21h08.53.037,longbabyloc,2023.2.2,60.069953740292995,
,,,,,,,,91.51999611000065,10,cars-13.jpg,,KN,1,vpnl,2023-11-15_21h08.53.037,longbabyloc,2023.2.2,60.069953740292995,
,,,,,,,,92.0199176879978,10,cars-14.jpg,,KN,1,vpnl,2023-11-15_21h08.53.037,longbabyloc,2023.2.2,60.069953740292995,
,,,,,,,,92.51996760000475,10,cars-15.jpg,,KN,1,vpnl,2023-11-15_21h08.53.037,longbabyloc,2023.2.2,60.069953740292995,
,,,,,,,,93.02017724500911,10,cars-16.jpg,,KN,1,vpnl,2023-11-15_21h08.53.037,longbabyloc,2023.2.2,60.069953740292995,
,,,,,,,,93.51995585400437,11,blank-17.jpg,,KN,1,vpnl,2023-11-15_21h08.53.037,longbabyloc,2023.2.2,60.069953740292995,
,,,,,,,,94.01967843600141,11,blank-18.jpg,,KN,1,vpnl,2023-11-15_21h08.53.037,longbabyloc,2023.2.2,60.069953740292995,
,,,,,,,,94.52011435299937,11,blank-19.jpg,,KN,1,vpnl,2023-11-15_21h08.53.037,longbabyloc,2023.2.2,60.069953740292995,
,,,,,,,,95.0195526870084,11,blank-20.jpg,,KN,1,vpnl,2023-11-15_21h08.53.037,longbabyloc,2023.2.2,60.069953740292995,
,,,,,,,,95.51998037401063,11,blank-21.jpg,,KN,1,vpnl,2023-11-15_21h08.53.037,longbabyloc,2023.2.2,60.069953740292995,
,,,,,,,,96.01956081901153,11,blank-22.jpg,,KN,1,vpnl,2023-11-15_21h08.53.037,longbabyloc,2023.2.2,60.069953740292995,
,,,,,,,,96.52002984999854,11,blank-23.jpg,,KN,1,vpnl,2023-11-15_21h08.53.037,longbabyloc,2023.2.2,60.069953740292995,
,,,,,,,,97.02139289000479,11,blank-24.jpg,,KN,1,vpnl,2023-11-15_21h08.53.037,longbabyloc,2023.2.2,60.069953740292995,
,,,,,,,,97.5199448170024,12,cars-17.jpg,,KN,1,vpnl,2023-11-15_21h08.53.037,longbabyloc,2023.2.2,60.069953740292995,
,,,,,,,,98.0201682659972,12,cars-18.jpg,,KN,1,vpnl,2023-11-15_21h08.53.037,longbabyloc,2023.2.2,60.069953740292995,
,,,,,,,,98.52008370000112,12,cars-19.jpg,,KN,1,vpnl,2023-11-15_21h08.53.037,longbabyloc,2023.2.2,60.069953740292995,
,,,,,,,,99.01985238199995,12,cars-20.jpg,,KN,1,vpnl,2023-11-15_21h08.53.037,longbabyloc,2023.2.2,60.069953740292995,
,,,,,,,,99.51990010299778,12,cars-21.jpg,,KN,1,vpnl,2023-11-15_21h08.53.037,longbabyloc,2023.2.2,60.069953740292995,
,,,,,,,,100.01985917901038,12,cars-22.jpg,,KN,1,vpnl,2023-11-15_21h08.53.037,longbabyloc,2023.2.2,60.069953740292995,
,,,,,,,,100.51999078699737,12,cars-23.jpg,,KN,1,vpnl,2023-11-15_21h08.53.037,longbabyloc,2023.2.2,60.069953740292995,
,,,,,,,,101.01996605600289,12,cars-24.jpg,,KN,1,vpnl,2023-11-15_21h08.53.037,longbabyloc,2023.2.2,60.069953740292995,
,,,,,,,,101.5200081570074,13,blank-25.jpg,,KN,1,vpnl,2023-11-15_21h08.53.037,longbabyloc,2023.2.2,60.069953740292995,
,,,,,,,,102.02006546600023,13,blank-26.jpg,,KN,1,vpnl,2023-11-15_21h08.53.037,longbabyloc,2023.2.2,60.069953740292995,
,,,,,,,,102.5200384070049,13,blank-27.jpg,,KN,1,vpnl,2023-11-15_21h08.53.037,longbabyloc,2023.2.2,60.069953740292995,
,,,,,,,,103.02017316300771,13,blank-28.jpg,,KN,1,vpnl,2023-11-15_21h08.53.037,longbabyloc,2023.2.2,60.069953740292995,
,,,,,,,,103.52005745300266,13,blank-29.jpg,,KN,1,vpnl,2023-11-15_21h08.53.037,longbabyloc,2023.2.2,60.069953740292995,
,,,,,,,,104.02000179499737,13,blank-30.jpg,,KN,1,vpnl,2023-11-15_21h08.53.037,longbabyloc,2023.2.2,60.069953740292995,
,,,,,,,,104.51982616500754,13,blank-31.jpg,,KN,1,vpnl,2023-11-15_21h08.53.037,longbabyloc,2023.2.2,60.069953740292995,
,,,,,,,,105.01984362900839,13,blank-32.jpg,,KN,1,vpnl,2023-11-15_21h08.53.037,longbabyloc,2023.2.2,60.069953740292995,
,,,,,,,,105.51982675401086,14,faces-17.jpg,,KN,1,vpnl,2023-11-15_21h08.53.037,longbabyloc,2023.2.2,60.069953740292995,
,,,,,,,,106.01971217700338,14,faces-18.jpg,,KN,1,vpnl,2023-11-15_21h08.53.037,longbabyloc,2023.2.2,60.069953740292995,
,,,,,,,,106.5199971920083,14,faces-19.jpg,,KN,1,vpnl,2023-11-15_21h08.53.037,longbabyloc,2023.2.2,60.069953740292995,
,,,,,,,,107.01990826500696,14,faces-20.jpg,,KN,1,vpnl,2023-11-15_21h08.53.037,longbabyloc,2023.2.2,60.069953740292995,
,,,,,,,,107.51990005200787,14,faces-21.jpg,,KN,1,vpnl,2023-11-15_21h08.53.037,longbabyloc,2023.2.2,60.069953740292995,
,,,,,,,,108.01980798400473,14,faces-22.jpg,,KN,1,vpnl,2023-11-15_21h08.53.037,longbabyloc,2023.2.2,60.069953740292995,
,,,,,,,,108.51976993300195,14,faces-23.jpg,,KN,1,vpnl,2023-11-15_21h08.53.037,longbabyloc,2023.2.2,60.069953740292995,
,,,,,,,,109.0198246580112,14,faces-24.jpg,,KN,1,vpnl,2023-11-15_21h08.53.037,longbabyloc,2023.2.2,60.069953740292995,
,,,,,,,,109.51983956100594,15,scenes-17.jpg,,KN,1,vpnl,2023-11-15_21h08.53.037,longbabyloc,2023.2.2,60.069953740292995,
,,,,,,,,110.01993175700773,15,scenes-18.jpg,,KN,1,vpnl,2023-11-15_21h08.53.037,longbabyloc,2023.2.2,60.069953740292995,
,,,,,,,,110.52061698700709,15,scenes-19.jpg,,KN,1,vpnl,2023-11-15_21h08.53.037,longbabyloc,2023.2.2,60.069953740292995,
,,,,,,,,111.01979642199876,15,scenes-20.jpg,,KN,1,vpnl,2023-11-15_21h08.53.037,longbabyloc,2023.2.2,60.069953740292995,
,,,,,,,,111.51983987400308,15,scenes-21.jpg,,KN,1,vpnl,2023-11-15_21h08.53.037,longbabyloc,2023.2.2,60.069953740292995,
,,,,,,,,112.02567692899902,15,scenes-22.jpg,,KN,1,vpnl,2023-11-15_21h08.53.037,longbabyloc,2023.2.2,60.069953740292995,
,,,,,,,,112.51986664200376,15,scenes-23.jpg,,KN,1,vpnl,2023-11-15_21h08.53.037,longbabyloc,2023.2.2,60.069953740292995,
,,,,,,,,113.01988700400398,15,scenes-24.jpg,,KN,1,vpnl,2023-11-15_21h08.53.037,longbabyloc,2023.2.2,60.069953740292995,
,,,,,,,,113.51974688700284,16,hands-17.jpg,,KN,1,vpnl,2023-11-15_21h08.53.037,longbabyloc,2023.2.2,60.069953740292995,
,,,,,,,,114.01966294800513,16,hands-18.jpg,,KN,1,vpnl,2023-11-15_21h08.53.037,longbabyloc,2023.2.2,60.069953740292995,
,,,,,,,,114.51981289099785,16,hands-19.jpg,,KN,1,vpnl,2023-11-15_21h08.53.037,longbabyloc,2023.2.2,60.069953740292995,
,,,,,,,,115.01967695901112,16,hands-20.jpg,,KN,1,vpnl,2023-11-15_21h08.53.037,longbabyloc,2023.2.2,60.069953740292995,
,,,,,,,,115.51979011400545,16,hands-21.jpg,,KN,1,vpnl,2023-11-15_21h08.53.037,longbabyloc,2023.2.2,60.069953740292995,
,,,,,,,,116.01984828300192,16,hands-22.jpg,,KN,1,vpnl,2023-11-15_21h08.53.037,longbabyloc,2023.2.2,60.069953740292995,
,,,,,,,,116.51972315300372,16,hands-23.jpg,,KN,1,vpnl,2023-11-15_21h08.53.037,longbabyloc,2023.2.2,60.069953740292995,
,,,,,,,,117.01970743200218,16,hands-24.jpg,,KN,1,vpnl,2023-11-15_21h08.53.037,longbabyloc,2023.2.2,60.069953740292995,
,,,,,,,,117.52059865400952,17,cars-25.jpg,,KN,1,vpnl,2023-11-15_21h08.53.037,longbabyloc,2023.2.2,60.069953740292995,
,,,,,,,,118.01965896200272,17,cars-26.jpg,,KN,1,vpnl,2023-11-15_21h08.53.037,longbabyloc,2023.2.2,60.069953740292995,
,,,,,,,,118.51965966200805,17,cars-27.jpg,,KN,1,vpnl,2023-11-15_21h08.53.037,longbabyloc,2023.2.2,60.069953740292995,
,,,,,,,,119.01961545700033,17,cars-28.jpg,,KN,1,vpnl,2023-11-15_21h08.53.037,longbabyloc,2023.2.2,60.069953740292995,
,,,,,,,,119.5196238940116,17,cars-29.jpg,,KN,1,vpnl,2023-11-15_21h08.53.037,longbabyloc,2023.2.2,60.069953740292995,
,,,,,,,,120.01965178300452,17,cars-30.jpg,,KN,1,vpnl,2023-11-15_21h08.53.037,longbabyloc,2023.2.2,60.069953740292995,
,,,,,,,,120.51961119400221,17,cars-31.jpg,,KN,1,vpnl,2023-11-15_21h08.53.037,longbabyloc,2023.2.2,60.069953740292995,
,,,,,,,,121.01963248501124,17,cars-32.jpg,,KN,1,vpnl,2023-11-15_21h08.53.037,longbabyloc,2023.2.2,60.069953740292995,
,,,,,,,,121.51912124900264,18,blank-33.jpg,,KN,1,vpnl,2023-11-15_21h08.53.037,longbabyloc,2023.2.2,60.069953740292995,
,,,,,,,,122.01948128700315,18,blank-34.jpg,,KN,1,vpnl,2023-11-15_21h08.53.037,longbabyloc,2023.2.2,60.069953740292995,
,,,,,,,,122.51979752800253,18,blank-35.jpg,,KN,1,vpnl,2023-11-15_21h08.53.037,longbabyloc,2023.2.2,60.069953740292995,
,,,,,,,,123.01944699299929,18,blank-36.jpg,,KN,1,vpnl,2023-11-15_21h08.53.037,longbabyloc,2023.2.2,60.069953740292995,
,,,,,,,,123.51960484399751,18,blank-37.jpg,,KN,1,vpnl,2023-11-15_21h08.53.037,longbabyloc,2023.2.2,60.069953740292995,
,,,,,,,,124.0194242150028,18,blank-38.jpg,,KN,1,vpnl,2023-11-15_21h08.53.037,longbabyloc,2023.2.2,60.069953740292995,
,,,,,,,,124.51939519100415,18,blank-39.jpg,,KN,1,vpnl,2023-11-15_21h08.53.037,longbabyloc,2023.2.2,60.069953740292995,
,,,,,,,,125.01941938500386,18,blank-40.jpg,,KN,1,vpnl,2023-11-15_21h08.53.037,longbabyloc,2023.2.2,60.069953740292995,
,,,,,,,,125.51946002400655,19,scenes-25.jpg,,KN,1,vpnl,2023-11-15_21h08.53.037,longbabyloc,2023.2.2,60.069953740292995,
,,,,,,,,126.01944479900703,19,scenes-26.jpg,,KN,1,vpnl,2023-11-15_21h08.53.037,longbabyloc,2023.2.2,60.069953740292995,
,,,,,,,,126.51954766000563,19,scenes-27.jpg,,KN,1,vpnl,2023-11-15_21h08.53.037,longbabyloc,2023.2.2,60.069953740292995,
,,,,,,,,127.01919771901157,19,scenes-28.jpg,,KN,1,vpnl,2023-11-15_21h08.53.037,longbabyloc,2023.2.2,60.069953740292995,
,,,,,,,,127.51960739100468,19,scenes-29.jpg,,KN,1,vpnl,2023-11-15_21h08.53.037,longbabyloc,2023.2.2,60.069953740292995,
,,,,,,,,128.0193772729981,19,scenes-30.jpg,,KN,1,vpnl,2023-11-15_21h08.53.037,longbabyloc,2023.2.2,60.069953740292995,
,,,,,,,,128.5193951310066,19,scenes-31.jpg,,KN,1,vpnl,2023-11-15_21h08.53.037,longbabyloc,2023.2.2,60.069953740292995,
,,,,,,,,129.01930382000864,19,scenes-32.jpg,,KN,1,vpnl,2023-11-15_21h08.53.037,longbabyloc,2023.2.2,60.069953740292995,
,,,,,,,,129.51928403999773,20,hands-25.jpg,,KN,1,vpnl,2023-11-15_21h08.53.037,longbabyloc,2023.2.2,60.069953740292995,
,,,,,,,,130.0192371130106,20,hands-26.jpg,,KN,1,vpnl,2023-11-15_21h08.53.037,longbabyloc,2023.2.2,60.069953740292995,
,,,,,,,,130.51925569000014,20,hands-27.jpg,,KN,1,vpnl,2023-11-15_21h08.53.037,longbabyloc,2023.2.2,60.069953740292995,
,,,,,,,,131.0192780840007,20,hands-28.jpg,,KN,1,vpnl,2023-11-15_21h08.53.037,longbabyloc,2023.2.2,60.069953740292995,
,,,,,,,,131.5192898850073,20,hands-29.jpg,,KN,1,vpnl,2023-11-15_21h08.53.037,longbabyloc,2023.2.2,60.069953740292995,
,,,,,,,,132.0193205500109,20,hands-30.jpg,,KN,1,vpnl,2023-11-15_21h08.53.037,longbabyloc,2023.2.2,60.069953740292995,
,,,,,,,,132.51942294600303,20,hands-31.jpg,,KN,1,vpnl,2023-11-15_21h08.53.037,longbabyloc,2023.2.2,60.069953740292995,
,,,,,,,,133.0192987890041,20,hands-32.jpg,,KN,1,vpnl,2023-11-15_21h08.53.037,longbabyloc,2023.2.2,60.069953740292995,
,,,,,,,,133.519094992007,21,faces-25.jpg,,KN,1,vpnl,2023-11-15_21h08.53.037,longbabyloc,2023.2.2,60.069953740292995,
,,,,,,,,134.01923175700358,21,faces-26.jpg,,KN,1,vpnl,2023-11-15_21h08.53.037,longbabyloc,2023.2.2,60.069953740292995,
,,,,,,,,134.5191192820057,21,faces-27.jpg,,KN,1,vpnl,2023-11-15_21h08.53.037,longbabyloc,2023.2.2,60.069953740292995,
,,,,,,,,135.0191681849974,21,faces-28.jpg,,KN,1,vpnl,2023-11-15_21h08.53.037,longbabyloc,2023.2.2,60.069953740292995,
,,,,,,,,135.51919068599818,21,faces-29.jpg,,KN,1,vpnl,2023-11-15_21h08.53.037,longbabyloc,2023.2.2,60.069953740292995,
,,,,,,,,136.01912802401057,21,faces-30.jpg,,KN,1,vpnl,2023-11-15_21h08.53.037,longbabyloc,2023.2.2,60.069953740292995,
,,,,,,,,136.51917814899934,21,faces-31.jpg,,KN,1,vpnl,2023-11-15_21h08.53.037,longbabyloc,2023.2.2,60.069953740292995,
,,,,,,,,137.01918690500315,21,faces-32.jpg,,KN,1,vpnl,2023-11-15_21h08.53.037,longbabyloc,2023.2.2,60.069953740292995,
,,,,,,,,137.51928322300955,22,cars-33.jpg,,KN,1,vpnl,2023-11-15_21h08.53.037,longbabyloc,2023.2.2,60.069953740292995,
,,,,,,,,138.01947658900463,22,cars-34.jpg,,KN,1,vpnl,2023-11-15_21h08.53.037,longbabyloc,2023.2.2,60.069953740292995,
,,,,,,,,138.51920070699998,22,cars-35.jpg,,KN,1,vpnl,2023-11-15_21h08.53.037,longbabyloc,2023.2.2,60.069953740292995,
,,,,,,,,139.01903981500072,22,cars-36.jpg,,KN,1,vpnl,2023-11-15_21h08.53.037,longbabyloc,2023.2.2,60.069953740292995,
,,,,,,,,139.51915099400503,22,cars-37.jpg,,KN,1,vpnl,2023-11-15_21h08.53.037,longbabyloc,2023.2.2,60.069953740292995,
,,,,,,,,140.01896112199756,22,cars-38.jpg,,KN,1,vpnl,2023-11-15_21h08.53.037,longbabyloc,2023.2.2,60.069953740292995,
,,,,,,,,140.5190416060068,22,cars-39.jpg,,KN,1,vpnl,2023-11-15_21h08.53.037,longbabyloc,2023.2.2,60.069953740292995,
,,,,,,,,141.01901099600946,22,cars-40.jpg,,KN,1,vpnl,2023-11-15_21h08.53.037,longbabyloc,2023.2.2,60.069953740292995,
,,,,,,,,141.5192248430103,23,scenes-33.jpg,,KN,1,vpnl,2023-11-15_21h08.53.037,longbabyloc,2023.2.2,60.069953740292995,
,,,,,,,,142.01913449401036,23,scenes-34.jpg,,KN,1,vpnl,2023-11-15_21h08.53.037,longbabyloc,2023.2.2,60.069953740292995,
,,,,,,,,142.51919768301013,23,scenes-35.jpg,,KN,1,vpnl,2023-11-15_21h08.53.037,longbabyloc,2023.2.2,60.069953740292995,
,,,,,,,,143.01907010099967,23,scenes-36.jpg,,KN,1,vpnl,2023-11-15_21h08.53.037,longbabyloc,2023.2.2,60.069953740292995,
,,,,,,,,143.51912242200342,23,scenes-37.jpg,,KN,1,vpnl,2023-11-15_21h08.53.037,longbabyloc,2023.2.2,60.069953740292995,
,,,,,,,,144.01909426000202,23,scenes-38.jpg,,KN,1,vpnl,2023-11-15_21h08.53.037,longbabyloc,2023.2.2,60.069953740292995,
,,,,,,,,144.51908423200075,23,scenes-39.jpg,,KN,1,vpnl,2023-11-15_21h08.53.037,longbabyloc,2023.2.2,60.069953740292995,
,,,,,,,,145.01908952300437,23,scenes-40.jpg,,KN,1,vpnl,2023-11-15_21h08.53.037,longbabyloc,2023.2.2,60.069953740292995,
,,,,,,,,145.5190830770007,24,faces-33.jpg,,KN,1,vpnl,2023-11-15_21h08.53.037,longbabyloc,2023.2.2,60.069953740292995,
,,,,,,,,146.01912607401027,24,faces-34.jpg,,KN,1,vpnl,2023-11-15_21h08.53.037,longbabyloc,2023.2.2,60.069953740292995,
,,,,,,,,146.51914376700006,24,faces-35.jpg,,KN,1,vpnl,2023-11-15_21h08.53.037,longbabyloc,2023.2.2,60.069953740292995,
,,,,,,,,147.01921880400914,24,faces-36.jpg,,KN,1,vpnl,2023-11-15_21h08.53.037,longbabyloc,2023.2.2,60.069953740292995,
,,,,,,,,147.51913867700205,24,faces-37.jpg,,KN,1,vpnl,2023-11-15_21h08.53.037,longbabyloc,2023.2.2,60.069953740292995,
,,,,,,,,148.01922119500523,24,faces-38.jpg,,KN,1,vpnl,2023-11-15_21h08.53.037,longbabyloc,2023.2.2,60.069953740292995,
,,,,,,,,148.51917790900916,24,faces-39.jpg,,KN,1,vpnl,2023-11-15_21h08.53.037,longbabyloc,2023.2.2,60.069953740292995,
,,,,,,,,149.01893564200145,24,faces-40.jpg,,KN,1,vpnl,2023-11-15_21h08.53.037,longbabyloc,2023.2.2,60.069953740292995,
,,,,,,,,149.51898846100084,25,blank-41.jpg,,KN,1,vpnl,2023-11-15_21h08.53.037,longbabyloc,2023.2.2,60.069953740292995,
,,,,,,,,150.0190454609983,25,blank-42.jpg,,KN,1,vpnl,2023-11-15_21h08.53.037,longbabyloc,2023.2.2,60.069953740292995,
,,,,,,,,150.51908394500788,25,blank-43.jpg,,KN,1,vpnl,2023-11-15_21h08.53.037,longbabyloc,2023.2.2,60.069953740292995,
,,,,,,,,151.01916029500717,25,blank-44.jpg,,KN,1,vpnl,2023-11-15_21h08.53.037,longbabyloc,2023.2.2,60.069953740292995,
,,,,,,,,151.5190908509976,25,blank-45.jpg,,KN,1,vpnl,2023-11-15_21h08.53.037,longbabyloc,2023.2.2,60.069953740292995,
,,,,,,,,152.0190636680054,25,blank-46.jpg,,KN,1,vpnl,2023-11-15_21h08.53.037,longbabyloc,2023.2.2,60.069953740292995,
,,,,,,,,152.51920984100434,25,blank-47.jpg,,KN,1,vpnl,2023-11-15_21h08.53.037,longbabyloc,2023.2.2,60.069953740292995,
,,,,,,,,153.0192548019986,25,blank-48.jpg,,KN,1,vpnl,2023-11-15_21h08.53.037,longbabyloc,2023.2.2,60.069953740292995,
,,,,,,,,153.51901517000806,26,hands-33.jpg,,KN,1,vpnl,2023-11-15_21h08.53.037,longbabyloc,2023.2.2,60.069953740292995,
,,,,,,,,154.0189011760085,26,hands-34.jpg,,KN,1,vpnl,2023-11-15_21h08.53.037,longbabyloc,2023.2.2,60.069953740292995,
,,,,,,,,154.5188666860049,26,hands-35.jpg,,KN,1,vpnl,2023-11-15_21h08.53.037,longbabyloc,2023.2.2,60.069953740292995,
,,,,,,,,155.01900660200045,26,hands-36.jpg,,KN,1,vpnl,2023-11-15_21h08.53.037,longbabyloc,2023.2.2,60.069953740292995,
,,,,,,,,155.51899386000878,26,hands-37.jpg,,KN,1,vpnl,2023-11-15_21h08.53.037,longbabyloc,2023.2.2,60.069953740292995,
,,,,,,,,156.0190099850006,26,hands-38.jpg,,KN,1,vpnl,2023-11-15_21h08.53.037,longbabyloc,2023.2.2,60.069953740292995,
,,,,,,,,156.51909985599923,26,hands-39.jpg,,KN,1,vpnl,2023-11-15_21h08.53.037,longbabyloc,2023.2.2,60.069953740292995,
,,,,,,,,157.0196010350046,26,hands-40.jpg,,KN,1,vpnl,2023-11-15_21h08.53.037,longbabyloc,2023.2.2,60.069953740292995,
,,,,,,,,157.51888211800542,27,blank-49.jpg,,KN,1,vpnl,2023-11-15_21h08.53.037,longbabyloc,2023.2.2,60.069953740292995,
,,,,,,,,158.01893204900261,27,blank-50.jpg,,KN,1,vpnl,2023-11-15_21h08.53.037,longbabyloc,2023.2.2,60.069953740292995,
,,,,,,,,158.51885584800038,27,blank-51.jpg,,KN,1,vpnl,2023-11-15_21h08.53.037,longbabyloc,2023.2.2,60.069953740292995,
,,,,,,,,159.01888610700553,27,blank-52.jpg,,KN,1,vpnl,2023-11-15_21h08.53.037,longbabyloc,2023.2.2,60.069953740292995,
,,,,,,,,159.51894104800886,27,blank-53.jpg,,KN,1,vpnl,2023-11-15_21h08.53.037,longbabyloc,2023.2.2,60.069953740292995,
,,,,,,,,160.01893091799866,27,blank-54.jpg,,KN,1,vpnl,2023-11-15_21h08.53.037,longbabyloc,2023.2.2,60.069953740292995,
,,,,,,,,160.51847672500298,27,blank-55.jpg,,KN,1,vpnl,2023-11-15_21h08.53.037,longbabyloc,2023.2.2,60.069953740292995,
,,,,,,,,161.0189090060012,27,blank-56.jpg,,KN,1,vpnl,2023-11-15_21h08.53.037,longbabyloc,2023.2.2,60.069953740292995,
,,,,,,,,161.5224111340067,28,cars-41.jpg,,KN,1,vpnl,2023-11-15_21h08.53.037,longbabyloc,2023.2.2,60.069953740292995,
,,,,,,,,162.01871143800963,28,cars-42.jpg,,KN,1,vpnl,2023-11-15_21h08.53.037,longbabyloc,2023.2.2,60.069953740292995,
,,,,,,,,162.51869221701054,28,cars-43.jpg,,KN,1,vpnl,2023-11-15_21h08.53.037,longbabyloc,2023.2.2,60.069953740292995,
,,,,,,,,163.01877551899815,28,cars-44.jpg,,KN,1,vpnl,2023-11-15_21h08.53.037,longbabyloc,2023.2.2,60.069953740292995,
,,,,,,,,163.5187424270116,28,cars-45.jpg,,KN,1,vpnl,2023-11-15_21h08.53.037,longbabyloc,2023.2.2,60.069953740292995,
,,,,,,,,164.01820210499864,28,cars-46.jpg,,KN,1,vpnl,2023-11-15_21h08.53.037,longbabyloc,2023.2.2,60.069953740292995,
,,,,,,,,164.51860329900228,28,cars-47.jpg,,KN,1,vpnl,2023-11-15_21h08.53.037,longbabyloc,2023.2.2,60.069953740292995,
,,,,,,,,165.02208689801046,28,cars-48.jpg,,KN,1,vpnl,2023-11-15_21h08.53.037,longbabyloc,2023.2.2,60.069953740292995,
,,,,,,,,165.51863961700292,29,scenes-41.jpg,,KN,1,vpnl,2023-11-15_21h08.53.037,longbabyloc,2023.2.2,60.069953740292995,
,,,,,,,,166.01859514600073,29,scenes-42.jpg,,KN,1,vpnl,2023-11-15_21h08.53.037,longbabyloc,2023.2.2,60.069953740292995,
,,,,,,,,166.51859097099805,29,scenes-43.jpg,,KN,1,vpnl,2023-11-15_21h08.53.037,longbabyloc,2023.2.2,60.069953740292995,
,,,,,,,,167.01865487999748,29,scenes-44.jpg,,KN,1,vpnl,2023-11-15_21h08.53.037,longbabyloc,2023.2.2,60.069953740292995,
,,,,,,,,167.51821665700118,29,scenes-45.jpg,,KN,1,vpnl,2023-11-15_21h08.53.037,longbabyloc,2023.2.2,60.069953740292995,
,,,,,,,,168.0186960639985,29,scenes-46.jpg,,KN,1,vpnl,2023-11-15_21h08.53.037,longbabyloc,2023.2.2,60.069953740292995,
,,,,,,,,168.52213087100245,29,scenes-47.jpg,,KN,1,vpnl,2023-11-15_21h08.53.037,longbabyloc,2023.2.2,60.069953740292995,
,,,,,,,,169.01846772400313,29,scenes-48.jpg,,KN,1,vpnl,2023-11-15_21h08.53.037,longbabyloc,2023.2.2,60.069953740292995,
,,,,,,,,169.51849692501128,30,hands-41.jpg,,KN,1,vpnl,2023-11-15_21h08.53.037,longbabyloc,2023.2.2,60.069953740292995,
,,,,,,,,170.01870079600485,30,hands-42.jpg,,KN,1,vpnl,2023-11-15_21h08.53.037,longbabyloc,2023.2.2,60.069953740292995,
,,,,,,,,170.51855231099762,30,hands-43.jpg,,KN,1,vpnl,2023-11-15_21h08.53.037,longbabyloc,2023.2.2,60.069953740292995,
,,,,,,,,171.01823586900719,30,hands-44.jpg,,KN,1,vpnl,2023-11-15_21h08.53.037,longbabyloc,2023.2.2,60.069953740292995,
,,,,,,,,171.5184706160071,30,hands-45.jpg,,KN,1,vpnl,2023-11-15_21h08.53.037,longbabyloc,2023.2.2,60.069953740292995,
,,,,,,,,172.02214935400116,30,hands-46.jpg,,KN,1,vpnl,2023-11-15_21h08.53.037,longbabyloc,2023.2.2,60.069953740292995,
,,,,,,,,172.51847950700903,30,hands-47.jpg,,KN,1,vpnl,2023-11-15_21h08.53.037,longbabyloc,2023.2.2,60.069953740292995,
,,,,,,,,173.0184905299975,30,hands-48.jpg,,KN,1,vpnl,2023-11-15_21h08.53.037,longbabyloc,2023.2.2,60.069953740292995,
,,,,,,,,173.51847535900015,31,faces-41.jpg,,KN,1,vpnl,2023-11-15_21h08.53.037,longbabyloc,2023.2.2,60.069953740292995,
,,,,,,,,174.01870749299997,31,faces-42.jpg,,KN,1,vpnl,2023-11-15_21h08.53.037,longbabyloc,2023.2.2,60.069953740292995,
,,,,,,,,174.5184694030031,31,faces-43.jpg,,KN,1,vpnl,2023-11-15_21h08.53.037,longbabyloc,2023.2.2,60.069953740292995,
,,,,,,,,175.01858024200192,31,faces-44.jpg,,KN,1,vpnl,2023-11-15_21h08.53.037,longbabyloc,2023.2.2,60.069953740292995,
,,,,,,,,175.51865151499806,31,faces-45.jpg,,KN,1,vpnl,2023-11-15_21h08.53.037,longbabyloc,2023.2.2,60.069953740292995,
,,,,,,,,176.0184753610083,31,faces-46.jpg,,KN,1,vpnl,2023-11-15_21h08.53.037,longbabyloc,2023.2.2,60.069953740292995,
,,,,,,,,176.51843281999754,31,faces-47.jpg,,KN,1,vpnl,2023-11-15_21h08.53.037,longbabyloc,2023.2.2,60.069953740292995,
,,,,,,,,177.01831745500385,31,faces-48.jpg,,KN,1,vpnl,2023-11-15_21h08.53.037,longbabyloc,2023.2.2,60.069953740292995,
,,,,,,,,177.5184121390048,32,scenes-49.jpg,,KN,1,vpnl,2023-11-15_21h08.53.037,longbabyloc,2023.2.2,60.069953740292995,
,,,,,,,,178.01855500300007,32,scenes-50.jpg,,KN,1,vpnl,2023-11-15_21h08.53.037,longbabyloc,2023.2.2,60.069953740292995,
,,,,,,,,178.51855520700337,32,scenes-51.jpg,,KN,1,vpnl,2023-11-15_21h08.53.037,longbabyloc,2023.2.2,60.069953740292995,
,,,,,,,,179.01850055300747,32,scenes-52.jpg,,KN,1,vpnl,2023-11-15_21h08.53.037,longbabyloc,2023.2.2,60.069953740292995,
,,,,,,,,179.51789784400898,32,scenes-53.jpg,,KN,1,vpnl,2023-11-15_21h08.53.037,longbabyloc,2023.2.2,60.069953740292995,
,,,,,,,,180.01832116000878,32,scenes-54.jpg,,KN,1,vpnl,2023-11-15_21h08.53.037,longbabyloc,2023.2.2,60.069953740292995,
,,,,,,,,180.52226138100377,32,scenes-55.jpg,,KN,1,vpnl,2023-11-15_21h08.53.037,longbabyloc,2023.2.2,60.069953740292995,
,,,,,,,,181.01832423600717,32,scenes-56.jpg,,KN,1,vpnl,2023-11-15_21h08.53.037,longbabyloc,2023.2.2,60.069953740292995,
,,,,,,,,181.5183720720088,33,hands-49.jpg,,KN,1,vpnl,2023-11-15_21h08.53.037,longbabyloc,2023.2.2,60.069953740292995,
,,,,,,,,182.018367718003,33,hands-50.jpg,,KN,1,vpnl,2023-11-15_21h08.53.037,longbabyloc,2023.2.2,60.069953740292995,
,,,,,,,,182.51860351400683,33,hands-51.jpg,,KN,1,vpnl,2023-11-15_21h08.53.037,longbabyloc,2023.2.2,60.069953740292995,
,,,,,,,,183.0181905530044,33,hands-52.jpg,,KN,1,vpnl,2023-11-15_21h08.53.037,longbabyloc,2023.2.2,60.069953740292995,
,,,,,,,,183.51831963899895,33,hands-53.jpg,,KN,1,vpnl,2023-11-15_21h08.53.037,longbabyloc,2023.2.2,60.069953740292995,
,,,,,,,,184.01825459000247,33,hands-54.jpg,,KN,1,vpnl,2023-11-15_21h08.53.037,longbabyloc,2023.2.2,60.069953740292995,
,,,,,,,,184.51837461300602,33,hands-55.jpg,,KN,1,vpnl,2023-11-15_21h08.53.037,longbabyloc,2023.2.2,60.069953740292995,
,,,,,,,,185.01858695200644,33,hands-56.jpg,,KN,1,vpnl,2023-11-15_21h08.53.037,longbabyloc,2023.2.2,60.069953740292995,
,,,,,,,,185.51825314899907,34,blank-57.jpg,,KN,1,vpnl,2023-11-15_21h08.53.037,longbabyloc,2023.2.2,60.069953740292995,
,,,,,,,,186.01833693801018,34,blank-58.jpg,,KN,1,vpnl,2023-11-15_21h08.53.037,longbabyloc,2023.2.2,60.069953740292995,
,,,,,,,,186.5183179040032,34,blank-59.jpg,,KN,1,vpnl,2023-11-15_21h08.53.037,longbabyloc,2023.2.2,60.069953740292995,
,,,,,,,,187.01851358301064,34,blank-60.jpg,,KN,1,vpnl,2023-11-15_21h08.53.037,longbabyloc,2023.2.2,60.069953740292995,
,,,,,,,,187.5183704420051,34,blank-61.jpg,,KN,1,vpnl,2023-11-15_21h08.53.037,longbabyloc,2023.2.2,60.069953740292995,
,,,,,,,,188.01796862900665,34,blank-62.jpg,,KN,1,vpnl,2023-11-15_21h08.53.037,longbabyloc,2023.2.2,60.069953740292995,
,,,,,,,,188.51836135200574,34,blank-63.jpg,,KN,1,vpnl,2023-11-15_21h08.53.037,longbabyloc,2023.2.2,60.069953740292995,
,,,,,,,,189.02166558000317,34,blank-64.jpg,,KN,1,vpnl,2023-11-15_21h08.53.037,longbabyloc,2023.2.2,60.069953740292995,
,,,,,,,,189.51827932499873,35,faces-49.jpg,,KN,1,vpnl,2023-11-15_21h08.53.037,longbabyloc,2023.2.2,60.069953740292995,
,,,,,,,,190.01831046699954,35,faces-50.jpg,,KN,1,vpnl,2023-11-15_21h08.53.037,longbabyloc,2023.2.2,60.069953740292995,
,,,,,,,,190.51837339100894,35,faces-51.jpg,,KN,1,vpnl,2023-11-15_21h08.53.037,longbabyloc,2023.2.2,60.069953740292995,
,,,,,,,,191.01826647399866,35,faces-52.jpg,,KN,1,vpnl,2023-11-15_21h08.53.037,longbabyloc,2023.2.2,60.069953740292995,
,,,,,,,,191.51820524199866,35,faces-53.jpg,,KN,1,vpnl,2023-11-15_21h08.53.037,longbabyloc,2023.2.2,60.069953740292995,
,,,,,,,,192.0182811889972,35,faces-54.jpg,,KN,1,vpnl,2023-11-15_21h08.53.037,longbabyloc,2023.2.2,60.069953740292995,
,,,,,,,,192.5183124930045,35,faces-55.jpg,,KN,1,vpnl,2023-11-15_21h08.53.037,longbabyloc,2023.2.2,60.069953740292995,
,,,,,,,,193.01847993700358,35,faces-56.jpg,,KN,1,vpnl,2023-11-15_21h08.53.037,longbabyloc,2023.2.2,60.069953740292995,
,,,,,,,,193.51825222400657,36,cars-49.jpg,,KN,1,vpnl,2023-11-15_21h08.53.037,longbabyloc,2023.2.2,60.069953740292995,
,,,,,,,,194.01805856800638,36,cars-50.jpg,,KN,1,vpnl,2023-11-15_21h08.53.037,longbabyloc,2023.2.2,60.069953740292995,
,,,,,,,,194.51813293500163,36,cars-51.jpg,,KN,1,vpnl,2023-11-15_21h08.53.037,longbabyloc,2023.2.2,60.069953740292995,
,,,,,,,,195.01822099401033,36,cars-52.jpg,,KN,1,vpnl,2023-11-15_21h08.53.037,longbabyloc,2023.2.2,60.069953740292995,
,,,,,,,,195.51829149101104,36,cars-53.jpg,,KN,1,vpnl,2023-11-15_21h08.53.037,longbabyloc,2023.2.2,60.069953740292995,
,,,,,,,,196.01812505901034,36,cars-54.jpg,,KN,1,vpnl,2023-11-15_21h08.53.037,longbabyloc,2023.2.2,60.069953740292995,
,,,,,,,,196.51806689200748,36,cars-55.jpg,,KN,1,vpnl,2023-11-15_21h08.53.037,longbabyloc,2023.2.2,60.069953740292995,
,,,,,,,,197.01811888800876,36,cars-56.jpg,,KN,1,vpnl,2023-11-15_21h08.53.037,longbabyloc,2023.2.2,60.069953740292995,
,,,,,,,,197.51824696500262,37,scenes-57.jpg,,KN,1,vpnl,2023-11-15_21h08.53.037,longbabyloc,2023.2.2,60.069953740292995,
,,,,,,,,198.01826782499847,37,scenes-58.jpg,,KN,1,vpnl,2023-11-15_21h08.53.037,longbabyloc,2023.2.2,60.069953740292995,
,,,,,,,,198.51815777400043,37,scenes-59.jpg,,KN,1,vpnl,2023-11-15_21h08.53.037,longbabyloc,2023.2.2,60.069953740292995,
,,,,,,,,199.01791631600645,37,scenes-60.jpg,,KN,1,vpnl,2023-11-15_21h08.53.037,longbabyloc,2023.2.2,60.069953740292995,
,,,,,,,,199.5176323800115,37,scenes-61.jpg,,KN,1,vpnl,2023-11-15_21h08.53.037,longbabyloc,2023.2.2,60.069953740292995,
,,,,,,,,200.01813724800013,37,scenes-62.jpg,,KN,1,vpnl,2023-11-15_21h08.53.037,longbabyloc,2023.2.2,60.069953740292995,
,,,,,,,,200.5185318050062,37,scenes-63.jpg,,KN,1,vpnl,2023-11-15_21h08.53.037,longbabyloc,2023.2.2,60.069953740292995,
,,,,,,,,201.0180727810075,37,scenes-64.jpg,,KN,1,vpnl,2023-11-15_21h08.53.037,longbabyloc,2023.2.2,60.069953740292995,
,,,,,,,,201.51798497700656,38,hands-57.jpg,,KN,1,vpnl,2023-11-15_21h08.53.037,longbabyloc,2023.2.2,60.069953740292995,
,,,,,,,,202.01809727000364,38,hands-58.jpg,,KN,1,vpnl,2023-11-15_21h08.53.037,longbabyloc,2023.2.2,60.069953740292995,
,,,,,,,,202.51809751600376,38,hands-59.jpg,,KN,1,vpnl,2023-11-15_21h08.53.037,longbabyloc,2023.2.2,60.069953740292995,
,,,,,,,,203.0180664090003,38,hands-60.jpg,,KN,1,vpnl,2023-11-15_21h08.53.037,longbabyloc,2023.2.2,60.069953740292995,
,,,,,,,,203.5179432020086,38,hands-61.jpg,,KN,1,vpnl,2023-11-15_21h08.53.037,longbabyloc,2023.2.2,60.069953740292995,
,,,,,,,,204.01789274500334,38,hands-62.jpg,,KN,1,vpnl,2023-11-15_21h08.53.037,longbabyloc,2023.2.2,60.069953740292995,
,,,,,,,,204.51795027700427,38,hands-63.jpg,,KN,1,vpnl,2023-11-15_21h08.53.037,longbabyloc,2023.2.2,60.069953740292995,
,,,,,,,,205.0179545209976,38,hands-64.jpg,,KN,1,vpnl,2023-11-15_21h08.53.037,longbabyloc,2023.2.2,60.069953740292995,
,,,,,,,,205.51748215001135,39,cars-57.jpg,,KN,1,vpnl,2023-11-15_21h08.53.037,longbabyloc,2023.2.2,60.069953740292995,
,,,,,,,,206.01787556700583,39,cars-58.jpg,,KN,1,vpnl,2023-11-15_21h08.53.037,longbabyloc,2023.2.2,60.069953740292995,
,,,,,,,,206.5217823980056,39,cars-59.jpg,,KN,1,vpnl,2023-11-15_21h08.53.037,longbabyloc,2023.2.2,60.069953740292995,
,,,,,,,,207.01793746200565,39,cars-60.jpg,,KN,1,vpnl,2023-11-15_21h08.53.037,longbabyloc,2023.2.2,60.069953740292995,
,,,,,,,,207.51749017700786,39,cars-61.jpg,,KN,1,vpnl,2023-11-15_21h08.53.037,longbabyloc,2023.2.2,60.069953740292995,
,,,,,,,,208.01817905400821,39,cars-62.jpg,,KN,1,vpnl,2023-11-15_21h08.53.037,longbabyloc,2023.2.2,60.069953740292995,
,,,,,,,,208.5182365080109,39,cars-63.jpg,,KN,1,vpnl,2023-11-15_21h08.53.037,longbabyloc,2023.2.2,60.069953740292995,
,,,,,,,,209.01778628600005,39,cars-64.jpg,,KN,1,vpnl,2023-11-15_21h08.53.037,longbabyloc,2023.2.2,60.069953740292995,
,,,,,,,,209.5173884560063,40,faces-57.jpg,,KN,1,vpnl,2023-11-15_21h08.53.037,longbabyloc,2023.2.2,60.069953740292995,
,,,,,,,,210.01782366599946,40,faces-58.jpg,,KN,1,vpnl,2023-11-15_21h08.53.037,longbabyloc,2023.2.2,60.069953740292995,
,,,,,,,,210.5180555679981,40,faces-59.jpg,,KN,1,vpnl,2023-11-15_21h08.53.037,longbabyloc,2023.2.2,60.069953740292995,
,,,,,,,,211.01774226300768,40,faces-60.jpg,,KN,1,vpnl,2023-11-15_21h08.53.037,longbabyloc,2023.2.2,60.069953740292995,
,,,,,,,,211.51739492100023,40,faces-61.jpg,,KN,1,vpnl,2023-11-15_21h08.53.037,longbabyloc,2023.2.2,60.069953740292995,
,,,,,,,,212.01797174700187,40,faces-62.jpg,,KN,1,vpnl,2023-11-15_21h08.53.037,longbabyloc,2023.2.2,60.069953740292995,
,,,,,,,,212.51805479401082,40,faces-63.jpg,,KN,1,vpnl,2023-11-15_21h08.53.037,longbabyloc,2023.2.2,60.069953740292995,
,,,,,,,,213.01768814701063,40,faces-64.jpg,,KN,1,vpnl,2023-11-15_21h08.53.037,longbabyloc,2023.2.2,60.069953740292995,
,,,,,,,,213.51733290399716,41,blank-65.jpg,,KN,1,vpnl,2023-11-15_21h08.53.037,longbabyloc,2023.2.2,60.069953740292995,
,,,,,,,,214.01788107999892,41,blank-66.jpg,,KN,1,vpnl,2023-11-15_21h08.53.037,longbabyloc,2023.2.2,60.069953740292995,
,,,,,,,,214.5175559650088,41,blank-67.jpg,,KN,1,vpnl,2023-11-15_21h08.53.037,longbabyloc,2023.2.2,60.069953740292995,
,,,,,,,,215.01781094699982,41,blank-68.jpg,,KN,1,vpnl,2023-11-15_21h08.53.037,longbabyloc,2023.2.2,60.069953740292995,
,,,,,,,,215.51727734300948,41,blank-69.jpg,,KN,1,vpnl,2023-11-15_21h08.53.037,longbabyloc,2023.2.2,60.069953740292995,
,,,,,,,,216.01776031999907,41,blank-70.jpg,,KN,1,vpnl,2023-11-15_21h08.53.037,longbabyloc,2023.2.2,60.069953740292995,
,,,,,,,,216.51791775799938,41,blank-71.jpg,,KN,1,vpnl,2023-11-15_21h08.53.037,longbabyloc,2023.2.2,60.069953740292995,
,,,,,,,,217.01755244600645,41,blank-72.jpg,,KN,1,vpnl,2023-11-15_21h08.53.037,longbabyloc,2023.2.2,60.069953740292995,
,,,,,,,,217.51726218900876,42,hands-65.jpg,,KN,1,vpnl,2023-11-15_21h08.53.037,longbabyloc,2023.2.2,60.069953740292995,
,,,,,,,,218.01772558499943,42,hands-66.jpg,,KN,1,vpnl,2023-11-15_21h08.53.037,longbabyloc,2023.2.2,60.069953740292995,
,,,,,,,,218.51752519900037,42,hands-67.jpg,,KN,1,vpnl,2023-11-15_21h08.53.037,longbabyloc,2023.2.2,60.069953740292995,
,,,,,,,,219.0175614990003,42,hands-68.jpg,,KN,1,vpnl,2023-11-15_21h08.53.037,longbabyloc,2023.2.2,60.069953740292995,
,,,,,,,,219.51720749800734,42,hands-69.jpg,,KN,1,vpnl,2023-11-15_21h08.53.037,longbabyloc,2023.2.2,60.069953740292995,
,,,,,,,,220.01768496001023,42,hands-70.jpg,,KN,1,vpnl,2023-11-15_21h08.53.037,longbabyloc,2023.2.2,60.069953740292995,
,,,,,,,,220.51827866700478,42,hands-71.jpg,,KN,1,vpnl,2023-11-15_21h08.53.037,longbabyloc,2023.2.2,60.069953740292995,
,,,,,,,,221.01756136999757,42,hands-72.jpg,,KN,1,vpnl,2023-11-15_21h08.53.037,longbabyloc,2023.2.2,60.069953740292995,
,,,,,,,,221.5173142850108,43,blank-73.jpg,,KN,1,vpnl,2023-11-15_21h08.53.037,longbabyloc,2023.2.2,60.069953740292995,
,,,,,,,,222.01768693300255,43,blank-74.jpg,,KN,1,vpnl,2023-11-15_21h08.53.037,longbabyloc,2023.2.2,60.069953740292995,
,,,,,,,,222.51714116500807,43,blank-75.jpg,,KN,1,vpnl,2023-11-15_21h08.53.037,longbabyloc,2023.2.2,60.069953740292995,
,,,,,,,,223.01770431500336,43,blank-76.jpg,,KN,1,vpnl,2023-11-15_21h08.53.037,longbabyloc,2023.2.2,60.069953740292995,
,,,,,,,,223.52118639400578,43,blank-77.jpg,,KN,1,vpnl,2023-11-15_21h08.53.037,longbabyloc,2023.2.2,60.069953740292995,
,,,,,,,,224.01757888500288,43,blank-78.jpg,,KN,1,vpnl,2023-11-15_21h08.53.037,longbabyloc,2023.2.2,60.069953740292995,
,,,,,,,,224.51745302500785,43,blank-79.jpg,,KN,1,vpnl,2023-11-15_21h08.53.037,longbabyloc,2023.2.2,60.069953740292995,
,,,,,,,,225.0174551980017,43,blank-80.jpg,,KN,1,vpnl,2023-11-15_21h08.53.037,longbabyloc,2023.2.2,60.069953740292995,
,,,,,,,,225.5177029010083,44,faces-65.jpg,,KN,1,vpnl,2023-11-15_21h08.53.037,longbabyloc,2023.2.2,60.069953740292995,
,,,,,,,,226.01772949600127,44,faces-66.jpg,,KN,1,vpnl,2023-11-15_21h08.53.037,longbabyloc,2023.2.2,60.069953740292995,
,,,,,,,,226.5172812850069,44,faces-67.jpg,,KN,1,vpnl,2023-11-15_21h08.53.037,longbabyloc,2023.2.2,60.069953740292995,
,,,,,,,,227.0176058950019,44,faces-68.jpg,,KN,1,vpnl,2023-11-15_21h08.53.037,longbabyloc,2023.2.2,60.069953740292995,
,,,,,,,,227.5211106909992,44,faces-69.jpg,,KN,1,vpnl,2023-11-15_21h08.53.037,longbabyloc,2023.2.2,60.069953740292995,
,,,,,,,,228.01773585000774,44,faces-70.jpg,,KN,1,vpnl,2023-11-15_21h08.53.037,longbabyloc,2023.2.2,60.069953740292995,
,,,,,,,,228.51791391900042,44,faces-71.jpg,,KN,1,vpnl,2023-11-15_21h08.53.037,longbabyloc,2023.2.2,60.069953740292995,
,,,,,,,,229.01745530500193,44,faces-72.jpg,,KN,1,vpnl,2023-11-15_21h08.53.037,longbabyloc,2023.2.2,60.069953740292995,
,,,,,,,,229.51711374400475,45,scenes-65.jpg,,KN,1,vpnl,2023-11-15_21h08.53.037,longbabyloc,2023.2.2,60.069953740292995,
,,,,,,,,230.01762094600417,45,scenes-66.jpg,,KN,1,vpnl,2023-11-15_21h08.53.037,longbabyloc,2023.2.2,60.069953740292995,
,,,,,,,,230.51791130600031,45,scenes-67.jpg,,KN,1,vpnl,2023-11-15_21h08.53.037,longbabyloc,2023.2.2,60.069953740292995,
,,,,,,,,231.0175266770093,45,scenes-68.jpg,,KN,1,vpnl,2023-11-15_21h08.53.037,longbabyloc,2023.2.2,60.069953740292995,
,,,,,,,,231.51721997400455,45,scenes-69.jpg,,KN,1,vpnl,2023-11-15_21h08.53.037,longbabyloc,2023.2.2,60.069953740292995,
,,,,,,,,232.01779143999738,45,scenes-70.jpg,,KN,1,vpnl,2023-11-15_21h08.53.037,longbabyloc,2023.2.2,60.069953740292995,
,,,,,,,,232.51716117700562,45,scenes-71.jpg,,KN,1,vpnl,2023-11-15_21h08.53.037,longbabyloc,2023.2.2,60.069953740292995,
,,,,,,,,233.0174583820044,45,scenes-72.jpg,,KN,1,vpnl,2023-11-15_21h08.53.037,longbabyloc,2023.2.2,60.069953740292995,
,,,,,,,,233.51767992100213,46,cars-65.jpg,,KN,1,vpnl,2023-11-15_21h08.53.037,longbabyloc,2023.2.2,60.069953740292995,
,,,,,,,,234.0175139750063,46,cars-66.jpg,,KN,1,vpnl,2023-11-15_21h08.53.037,longbabyloc,2023.2.2,60.069953740292995,
,,,,,,,,234.51736897700175,46,cars-67.jpg,,KN,1,vpnl,2023-11-15_21h08.53.037,longbabyloc,2023.2.2,60.069953740292995,
,,,,,,,,235.01743168200483,46,cars-68.jpg,,KN,1,vpnl,2023-11-15_21h08.53.037,longbabyloc,2023.2.2,60.069953740292995,
,,,,,,,,235.51706868399924,46,cars-69.jpg,,KN,1,vpnl,2023-11-15_21h08.53.037,longbabyloc,2023.2.2,60.069953740292995,
,,,,,,,,236.01747073201113,46,cars-70.jpg,,KN,1,vpnl,2023-11-15_21h08.53.037,longbabyloc,2023.2.2,60.069953740292995,
,,,,,,,,236.51778827700764,46,cars-71.jpg,,KN,1,vpnl,2023-11-15_21h08.53.037,longbabyloc,2023.2.2,60.069953740292995,
,,,,,,,,237.01759972900618,46,cars-72.jpg,,KN,1,vpnl,2023-11-15_21h08.53.037,longbabyloc,2023.2.2,60.069953740292995,
,,,,,,,,237.5171749160072,47,scenes-73.jpg,,KN,1,vpnl,2023-11-15_21h08.53.037,longbabyloc,2023.2.2,60.069953740292995,
,,,,,,,,238.01739976700628,47,scenes-74.jpg,,KN,1,vpnl,2023-11-15_21h08.53.037,longbabyloc,2023.2.2,60.069953740292995,
,,,,,,,,238.5176998990064,47,scenes-75.jpg,,KN,1,vpnl,2023-11-15_21h08.53.037,longbabyloc,2023.2.2,60.069953740292995,
,,,,,,,,239.01746600400656,47,scenes-76.jpg,,KN,1,vpnl,2023-11-15_21h08.53.037,longbabyloc,2023.2.2,60.069953740292995,
,,,,,,,,239.51693360799982,47,scenes-77.jpg,,KN,1,vpnl,2023-11-15_21h08.53.037,longbabyloc,2023.2.2,60.069953740292995,
,,,,,,,,240.0172272339987,47,scenes-78.jpg,,KN,1,vpnl,2023-11-15_21h08.53.037,longbabyloc,2023.2.2,60.069953740292995,
,,,,,,,,240.51762849300576,47,scenes-79.jpg,,KN,1,vpnl,2023-11-15_21h08.53.037,longbabyloc,2023.2.2,60.069953740292995,
,,,,,,,,241.01736730000994,47,scenes-80.jpg,,KN,1,vpnl,2023-11-15_21h08.53.037,longbabyloc,2023.2.2,60.069953740292995,
,,,,,,,,241.5169169669971,48,cars-73.jpg,,KN,1,vpnl,2023-11-15_21h08.53.037,longbabyloc,2023.2.2,60.069953740292995,
,,,,,,,,242.01729454300948,48,cars-74.jpg,,KN,1,vpnl,2023-11-15_21h08.53.037,longbabyloc,2023.2.2,60.069953740292995,
,,,,,,,,242.51781035600288,48,cars-75.jpg,,KN,1,vpnl,2023-11-15_21h08.53.037,longbabyloc,2023.2.2,60.069953740292995,
,,,,,,,,243.01750578499923,48,cars-76.jpg,,KN,1,vpnl,2023-11-15_21h08.53.037,longbabyloc,2023.2.2,60.069953740292995,
,,,,,,,,243.51715240800695,48,cars-77.jpg,,KN,1,vpnl,2023-11-15_21h08.53.037,longbabyloc,2023.2.2,60.069953740292995,
,,,,,,,,244.0172602340026,48,cars-78.jpg,,KN,1,vpnl,2023-11-15_21h08.53.037,longbabyloc,2023.2.2,60.069953740292995,
,,,,,,,,244.51786028700008,48,cars-79.jpg,,KN,1,vpnl,2023-11-15_21h08.53.037,longbabyloc,2023.2.2,60.069953740292995,
,,,,,,,,245.01717459400243,48,cars-80.jpg,,KN,1,vpnl,2023-11-15_21h08.53.037,longbabyloc,2023.2.2,60.069953740292995,
,,,,,,,,245.51671062401147,49,blank-81.jpg,,KN,1,vpnl,2023-11-15_21h08.53.037,longbabyloc,2023.2.2,60.069953740292995,
,,,,,,,,246.01720867300173,49,blank-82.jpg,,KN,1,vpnl,2023-11-15_21h08.53.037,longbabyloc,2023.2.2,60.069953740292995,
,,,,,,,,246.51774800699786,49,blank-83.jpg,,KN,1,vpnl,2023-11-15_21h08.53.037,longbabyloc,2023.2.2,60.069953740292995,
,,,,,,,,247.01703694999742,49,blank-84.jpg,,KN,1,vpnl,2023-11-15_21h08.53.037,longbabyloc,2023.2.2,60.069953740292995,
,,,,,,,,247.5168194459984,49,blank-85.jpg,,KN,1,vpnl,2023-11-15_21h08.53.037,longbabyloc,2023.2.2,60.069953740292995,
,,,,,,,,248.01711402799992,49,blank-86.jpg,,KN,1,vpnl,2023-11-15_21h08.53.037,longbabyloc,2023.2.2,60.069953740292995,
,,,,,,,,248.5174950290093,49,blank-87.jpg,,KN,1,vpnl,2023-11-15_21h08.53.037,longbabyloc,2023.2.2,60.069953740292995,
,,,,,,,,249.0171305600088,49,blank-88.jpg,,KN,1,vpnl,2023-11-15_21h08.53.037,longbabyloc,2023.2.2,60.069953740292995,
,,,,,,,,249.51669371400203,50,faces-73.jpg,,KN,1,vpnl,2023-11-15_21h08.53.037,longbabyloc,2023.2.2,60.069953740292995,
,,,,,,,,250.0169496890012,50,faces-74.jpg,,KN,1,vpnl,2023-11-15_21h08.53.037,longbabyloc,2023.2.2,60.069953740292995,
,,,,,,,,250.5173743129999,50,faces-75.jpg,,KN,1,vpnl,2023-11-15_21h08.53.037,longbabyloc,2023.2.2,60.069953740292995,
,,,,,,,,251.01706535700941,50,faces-76.jpg,,KN,1,vpnl,2023-11-15_21h08.53.037,longbabyloc,2023.2.2,60.069953740292995,
,,,,,,,,251.51667656299833,50,faces-77.jpg,,KN,1,vpnl,2023-11-15_21h08.53.037,longbabyloc,2023.2.2,60.069953740292995,
,,,,,,,,252.017068621004,50,faces-78.jpg,,KN,1,vpnl,2023-11-15_21h08.53.037,longbabyloc,2023.2.2,60.069953740292995,
,,,,,,,,252.51748025900451,50,faces-79.jpg,,KN,1,vpnl,2023-11-15_21h08.53.037,longbabyloc,2023.2.2,60.069953740292995,
,,,,,,,,253.01712530800432,50,faces-80.jpg,,KN,1,vpnl,2023-11-15_21h08.53.037,longbabyloc,2023.2.2,60.069953740292995,
,,,,,,,,253.5166839960002,51,hands-73.jpg,,KN,1,vpnl,2023-11-15_21h08.53.037,longbabyloc,2023.2.2,60.069953740292995,
,,,,,,,,254.01695930000278,51,hands-74.jpg,,KN,1,vpnl,2023-11-15_21h08.53.037,longbabyloc,2023.2.2,60.069953740292995,
,,,,,,,,254.51740737000364,51,hands-75.jpg,,KN,1,vpnl,2023-11-15_21h08.53.037,longbabyloc,2023.2.2,60.069953740292995,
,,,,,,,,255.01720005300012,51,hands-76.jpg,,KN,1,vpnl,2023-11-15_21h08.53.037,longbabyloc,2023.2.2,60.069953740292995,
,,,,,,,,255.51648611199926,51,hands-77.jpg,,KN,1,vpnl,2023-11-15_21h08.53.037,longbabyloc,2023.2.2,60.069953740292995,
,,,,,,,,256.0170124050055,51,hands-78.jpg,,KN,1,vpnl,2023-11-15_21h08.53.037,longbabyloc,2023.2.2,60.069953740292995,
,,,,,,,,256.5172651580069,51,hands-79.jpg,,KN,1,vpnl,2023-11-15_21h08.53.037,longbabyloc,2023.2.2,60.069953740292995,
,,,,,,,,257.016820816003,51,hands-80.jpg,,KN,1,vpnl,2023-11-15_21h08.53.037,longbabyloc,2023.2.2,60.069953740292995,
,,,,,,,,257.51659929400194,52,faces-81.jpg,,KN,1,vpnl,2023-11-15_21h08.53.037,longbabyloc,2023.2.2,60.069953740292995,
,,,,,,,,258.0173427030095,52,faces-82.jpg,,KN,1,vpnl,2023-11-15_21h08.53.037,longbabyloc,2023.2.2,60.069953740292995,
,,,,,,,,258.5171549689985,52,faces-83.jpg,,KN,1,vpnl,2023-11-15_21h08.53.037,longbabyloc,2023.2.2,60.069953740292995,
,,,,,,,,259.0169269180042,52,faces-84.jpg,,KN,1,vpnl,2023-11-15_21h08.53.037,longbabyloc,2023.2.2,60.069953740292995,
,,,,,,,,259.51647594101087,52,faces-85.jpg,,KN,1,vpnl,2023-11-15_21h08.53.037,longbabyloc,2023.2.2,60.069953740292995,
,,,,,,,,260.01674932800233,52,faces-86.jpg,,KN,1,vpnl,2023-11-15_21h08.53.037,longbabyloc,2023.2.2,60.069953740292995,
,,,,,,,,260.5171004980075,52,faces-87.jpg,,KN,1,vpnl,2023-11-15_21h08.53.037,longbabyloc,2023.2.2,60.069953740292995,
,,,,,,,,261.016900831004,52,faces-88.jpg,,KN,1,vpnl,2023-11-15_21h08.53.037,longbabyloc,2023.2.2,60.069953740292995,
,,,,,,,,261.5165967260109,53,hands-81.jpg,,KN,1,vpnl,2023-11-15_21h08.53.037,longbabyloc,2023.2.2,60.069953740292995,
,,,,,,,,262.01720488100545,53,hands-82.jpg,,KN,1,vpnl,2023-11-15_21h08.53.037,longbabyloc,2023.2.2,60.069953740292995,
,,,,,,,,262.5170897360076,53,hands-83.jpg,,KN,1,vpnl,2023-11-15_21h08.53.037,longbabyloc,2023.2.2,60.069953740292995,
,,,,,,,,263.01687321200734,53,hands-84.jpg,,KN,1,vpnl,2023-11-15_21h08.53.037,longbabyloc,2023.2.2,60.069953740292995,
,,,,,,,,263.5164036269998,53,hands-85.jpg,,KN,1,vpnl,2023-11-15_21h08.53.037,longbabyloc,2023.2.2,60.069953740292995,
,,,,,,,,264.01679182599764,53,hands-86.jpg,,KN,1,vpnl,2023-11-15_21h08.53.037,longbabyloc,2023.2.2,60.069953740292995,
,,,,,,,,264.51737739599776,53,hands-87.jpg,,KN,1,vpnl,2023-11-15_21h08.53.037,longbabyloc,2023.2.2,60.069953740292995,
,,,,,,,,265.01668450400757,53,hands-88.jpg,,KN,1,vpnl,2023-11-15_21h08.53.037,longbabyloc,2023.2.2,60.069953740292995,
,,,,,,,,265.5165165320068,54,cars-81.jpg,,KN,1,vpnl,2023-11-15_21h08.53.037,longbabyloc,2023.2.2,60.069953740292995,
,,,,,,,,266.01680539500376,54,cars-82.jpg,,KN,1,vpnl,2023-11-15_21h08.53.037,longbabyloc,2023.2.2,60.069953740292995,
,,,,,,,,266.5170959219977,54,cars-83.jpg,,KN,1,vpnl,2023-11-15_21h08.53.037,longbabyloc,2023.2.2,60.069953740292995,
,,,,,,,,267.01676835400576,54,cars-84.jpg,,KN,1,vpnl,2023-11-15_21h08.53.037,longbabyloc,2023.2.2,60.069953740292995,
,,,,,,,,267.5165268520068,54,cars-85.jpg,,KN,1,vpnl,2023-11-15_21h08.53.037,longbabyloc,2023.2.2,60.069953740292995,
,,,,,,,,268.0168630070111,54,cars-86.jpg,,KN,1,vpnl,2023-11-15_21h08.53.037,longbabyloc,2023.2.2,60.069953740292995,
,,,,,,,,268.5171580770111,54,cars-87.jpg,,KN,1,vpnl,2023-11-15_21h08.53.037,longbabyloc,2023.2.2,60.069953740292995,
,,,,,,,,269.0169156269985,54,cars-88.jpg,,KN,1,vpnl,2023-11-15_21h08.53.037,longbabyloc,2023.2.2,60.069953740292995,
,,,,,,,,269.5166282930004,55,blank-89.jpg,,KN,1,vpnl,2023-11-15_21h08.53.037,longbabyloc,2023.2.2,60.069953740292995,
,,,,,,,,270.0167153980001,55,blank-90.jpg,,KN,1,vpnl,2023-11-15_21h08.53.037,longbabyloc,2023.2.2,60.069953740292995,
,,,,,,,,270.5173708729999,55,blank-91.jpg,,KN,1,vpnl,2023-11-15_21h08.53.037,longbabyloc,2023.2.2,60.069953740292995,
,,,,,,,,271.01678943799925,55,blank-92.jpg,,KN,1,vpnl,2023-11-15_21h08.53.037,longbabyloc,2023.2.2,60.069953740292995,
,,,,,,,,271.516377774009,55,blank-93.jpg,,KN,1,vpnl,2023-11-15_21h08.53.037,longbabyloc,2023.2.2,60.069953740292995,
,,,,,,,,272.0168591649999,55,blank-94.jpg,,KN,1,vpnl,2023-11-15_21h08.53.037,longbabyloc,2023.2.2,60.069953740292995,
,,,,,,,,272.5170553890057,55,blank-95.jpg,,KN,1,vpnl,2023-11-15_21h08.53.037,longbabyloc,2023.2.2,60.069953740292995,
,,,,,,,,273.0167146780004,55,blank-96.jpg,,KN,1,vpnl,2023-11-15_21h08.53.037,longbabyloc,2023.2.2,60.069953740292995,
,,,,,,,,273.51643055700697,56,scenes-81.jpg,,KN,1,vpnl,2023-11-15_21h08.53.037,longbabyloc,2023.2.2,60.069953740292995,
,,,,,,,,274.01703583600465,56,scenes-82.jpg,,KN,1,vpnl,2023-11-15_21h08.53.037,longbabyloc,2023.2.2,60.069953740292995,
,,,,,,,,274.5171390489995,56,scenes-83.jpg,,KN,1,vpnl,2023-11-15_21h08.53.037,longbabyloc,2023.2.2,60.069953740292995,
,,,,,,,,275.01684713800205,56,scenes-84.jpg,,KN,1,vpnl,2023-11-15_21h08.53.037,longbabyloc,2023.2.2,60.069953740292995,
,,,,,,,,275.51656927099975,56,scenes-85.jpg,,KN,1,vpnl,2023-11-15_21h08.53.037,longbabyloc,2023.2.2,60.069953740292995,
,,,,,,,,276.01657436499954,56,scenes-86.jpg,,KN,1,vpnl,2023-11-15_21h08.53.037,longbabyloc,2023.2.2,60.069953740292995,
,,,,,,,,276.5171665300004,56,scenes-87.jpg,,KN,1,vpnl,2023-11-15_21h08.53.037,longbabyloc,2023.2.2,60.069953740292995,
,,,,,,,,277.01680895499885,56,scenes-88.jpg,,KN,1,vpnl,2023-11-15_21h08.53.037,longbabyloc,2023.2.2,60.069953740292995,
,,,,,,,,277.51633660400694,57,faces-89.jpg,,KN,1,vpnl,2023-11-15_21h08.53.037,longbabyloc,2023.2.2,60.069953740292995,
,,,,,,,,278.0167344780057,57,faces-90.jpg,,KN,1,vpnl,2023-11-15_21h08.53.037,longbabyloc,2023.2.2,60.069953740292995,
,,,,,,,,278.5171346290008,57,faces-91.jpg,,KN,1,vpnl,2023-11-15_21h08.53.037,longbabyloc,2023.2.2,60.069953740292995,
,,,,,,,,279.0166694540094,57,faces-92.jpg,,KN,1,vpnl,2023-11-15_21h08.53.037,longbabyloc,2023.2.2,60.069953740292995,
,,,,,,,,279.51627066600486,57,faces-93.jpg,,KN,1,vpnl,2023-11-15_21h08.53.037,longbabyloc,2023.2.2,60.069953740292995,
,,,,,,,,280.01665913099714,57,faces-94.jpg,,KN,1,vpnl,2023-11-15_21h08.53.037,longbabyloc,2023.2.2,60.069953740292995,
,,,,,,,,280.5168330430024,57,faces-95.jpg,,KN,1,vpnl,2023-11-15_21h08.53.037,longbabyloc,2023.2.2,60.069953740292995,
,,,,,,,,281.01667403100873,57,faces-96.jpg,,KN,1,vpnl,2023-11-15_21h08.53.037,longbabyloc,2023.2.2,60.069953740292995,
,,,,,,,,281.51626635401044,58,blank-97.jpg,,KN,1,vpnl,2023-11-15_21h08.53.037,longbabyloc,2023.2.2,60.069953740292995,
,,,,,,,,282.0164479149971,58,blank-98.jpg,,KN,1,vpnl,2023-11-15_21h08.53.037,longbabyloc,2023.2.2,60.069953740292995,
,,,,,,,,282.5169757070107,58,blank-99.jpg,,KN,1,vpnl,2023-11-15_21h08.53.037,longbabyloc,2023.2.2,60.069953740292995,
,,,,,,,,283.01687279200996,58,blank-100.jpg,,KN,1,vpnl,2023-11-15_21h08.53.037,longbabyloc,2023.2.2,60.069953740292995,
,,,,,,,,283.5162738680083,58,blank-101.jpg,,KN,1,vpnl,2023-11-15_21h08.53.037,longbabyloc,2023.2.2,60.069953740292995,
,,,,,,,,284.0166549650021,58,blank-102.jpg,,KN,1,vpnl,2023-11-15_21h08.53.037,longbabyloc,2023.2.2,60.069953740292995,
,,,,,,,,284.5171095380065,58,blank-103.jpg,,KN,1,vpnl,2023-11-15_21h08.53.037,longbabyloc,2023.2.2,60.069953740292995,
,,,,,,,,285.0163308560004,58,blank-104.jpg,,KN,1,vpnl,2023-11-15_21h08.53.037,longbabyloc,2023.2.2,60.069953740292995,
,,,,,,,,285.5160626190045,59,scenes-89.jpg,,KN,1,vpnl,2023-11-15_21h08.53.037,longbabyloc,2023.2.2,60.069953740292995,
,,,,,,,,286.0163929640112,59,scenes-90.jpg,,KN,1,vpnl,2023-11-15_21h08.53.037,longbabyloc,2023.2.2,60.069953740292995,
,,,,,,,,286.5166335929971,59,scenes-91.jpg,,KN,1,vpnl,2023-11-15_21h08.53.037,longbabyloc,2023.2.2,60.069953740292995,
,,,,,,,,287.0164548430039,59,scenes-92.jpg,,KN,1,vpnl,2023-11-15_21h08.53.037,longbabyloc,2023.2.2,60.069953740292995,
,,,,,,,,287.5159890089999,59,scenes-93.jpg,,KN,1,vpnl,2023-11-15_21h08.53.037,longbabyloc,2023.2.2,60.069953740292995,
,,,,,,,,288.0163054190052,59,scenes-94.jpg,,KN,1,vpnl,2023-11-15_21h08.53.037,longbabyloc,2023.2.2,60.069953740292995,
,,,,,,,,288.5161207350029,59,scenes-95.jpg,,KN,1,vpnl,2023-11-15_21h08.53.037,longbabyloc,2023.2.2,60.069953740292995,
,,,,,,,,289.01643040899944,59,scenes-96.jpg,,KN,1,vpnl,2023-11-15_21h08.53.037,longbabyloc,2023.2.2,60.069953740292995,
,,,,,,,,289.5158609080099,60,hands-89.jpg,,KN,1,vpnl,2023-11-15_21h08.53.037,longbabyloc,2023.2.2,60.069953740292995,
,,,,,,,,290.0163352689997,60,hands-90.jpg,,KN,1,vpnl,2023-11-15_21h08.53.037,longbabyloc,2023.2.2,60.069953740292995,
,,,,,,,,290.5165663640073,60,hands-91.jpg,,KN,1,vpnl,2023-11-15_21h08.53.037,longbabyloc,2023.2.2,60.069953740292995,
,,,,,,,,291.0162389180041,60,hands-92.jpg,,KN,1,vpnl,2023-11-15_21h08.53.037,longbabyloc,2023.2.2,60.069953740292995,
,,,,,,,,291.51595675099816,60,hands-93.jpg,,KN,1,vpnl,2023-11-15_21h08.53.037,longbabyloc,2023.2.2,60.069953740292995,
,,,,,,,,292.0163759660063,60,hands-94.jpg,,KN,1,vpnl,2023-11-15_21h08.53.037,longbabyloc,2023.2.2,60.069953740292995,
,,,,,,,,292.51662789299735,60,hands-95.jpg,,KN,1,vpnl,2023-11-15_21h08.53.037,longbabyloc,2023.2.2,60.069953740292995,
,,,,,,,,293.0162663930096,60,hands-96.jpg,,KN,1,vpnl,2023-11-15_21h08.53.037,longbabyloc,2023.2.2,60.069953740292995,
,,,,,,,,293.51590228000714,61,cars-89.jpg,,KN,1,vpnl,2023-11-15_21h08.53.037,longbabyloc,2023.2.2,60.069953740292995,
,,,,,,,,294.0163151720044,61,cars-90.jpg,,KN,1,vpnl,2023-11-15_21h08.53.037,longbabyloc,2023.2.2,60.069953740292995,
,,,,,,,,294.5166134000028,61,cars-91.jpg,,KN,1,vpnl,2023-11-15_21h08.53.037,longbabyloc,2023.2.2,60.069953740292995,
,,,,,,,,295.01622828400286,61,cars-92.jpg,,KN,1,vpnl,2023-11-15_21h08.53.037,longbabyloc,2023.2.2,60.069953740292995,
,,,,,,,,295.5158420790103,61,cars-93.jpg,,KN,1,vpnl,2023-11-15_21h08.53.037,longbabyloc,2023.2.2,60.069953740292995,
,,,,,,,,296.0160690120101,61,cars-94.jpg,,KN,1,vpnl,2023-11-15_21h08.53.037,longbabyloc,2023.2.2,60.069953740292995,
,,,,,,,,296.5159195830056,61,cars-95.jpg,,KN,1,vpnl,2023-11-15_21h08.53.037,longbabyloc,2023.2.2,60.069953740292995,
,,,,,,,,297.01645246300905,61,cars-96.jpg,,KN,1,vpnl,2023-11-15_21h08.53.037,longbabyloc,2023.2.2,60.069953740292995,
,,,,,,,,297.51580143799947,62,blank-105.jpg,,KN,1,vpnl,2023-11-15_21h08.53.037,longbabyloc,2023.2.2,60.069953740292995,
,,,,,,,,298.0163442750054,62,blank-106.jpg,,KN,1,vpnl,2023-11-15_21h08.53.037,longbabyloc,2023.2.2,60.069953740292995,
,,,,,,,,298.5166594320035,62,blank-107.jpg,,KN,1,vpnl,2023-11-15_21h08.53.037,longbabyloc,2023.2.2,60.069953740292995,
,,,,,,,,299.01611568700173,62,blank-108.jpg,,KN,1,vpnl,2023-11-15_21h08.53.037,longbabyloc,2023.2.2,60.069953740292995,
,,,,,,,,299.5156818480027,62,blank-109.jpg,,KN,1,vpnl,2023-11-15_21h08.53.037,longbabyloc,2023.2.2,60.069953740292995,
,,,,,,,,300.0163287540054,62,blank-110.jpg,,KN,1,vpnl,2023-11-15_21h08.53.037,longbabyloc,2023.2.2,60.069953740292995,
,,,,,,,,300.51643040499766,62,blank-111.jpg,,KN,1,vpnl,2023-11-15_21h08.53.037,longbabyloc,2023.2.2,60.069953740292995,
,,,,,,,,301.0161195260007,62,blank-112.jpg,,KN,1,vpnl,2023-11-15_21h08.53.037,longbabyloc,2023.2.2,60.069953740292995,
