thisRow.t,notes,waiting_for_trigger_text.started,trigger.started,trigger.keys,trigger.rt,countdown.started,countdown.stopped,trial.stopped,stimuli.started,condition,stim_name,participant,run,user,date,expName,psychopyVersion,frameRate,
,,620.670823049004,620.670823049004,t,35.54913795499306,,,,,,,KN,1,vpnl,2023-11-15_21h08.53.037,longbabyloc,2023.2.2,60.069953740292995,
,,,,,,656.2430329560011,662.2940090790071,41.56675203400664,662.2940090790071,1,blank.mp4,KN,1,vpnl,2023-11-15_21h08.53.037,longbabyloc,2023.2.2,60.069953740292995,
,,,,,,,,,666.4188070000091,2,AX_hands_2.mp4,KN,1,vpnl,2023-11-15_21h08.53.037,longbabyloc,2023.2.2,60.069953740292995,
,,,,,,,,,670.3903652750014,3,yellowexcavator_4.mp4,KN,1,vpnl,2023-11-15_21h08.53.037,longbabyloc,2023.2.2,60.069953740292995,
,,,,,,,,,674.4101125980087,4,topofmountainsclouds.mp4,KN,1,vpnl,2023-11-15_21h08.53.037,longbabyloc,2023.2.2,60.069953740292995,
,,,,,,,,,678.3943183150113,5,blank.mp4,KN,1,vpnl,2023-11-15_21h08.53.037,longbabyloc,2023.2.2,60.069953740292995,
,,,,,,,,,682.4114167880034,6,EC_1.mp4,KN,1,vpnl,2023-11-15_21h08.53.037,longbabyloc,2023.2.2,60.069953740292995,
,,,,,,,,,686.3865939300013,7,sunnywaves.mp4,KN,1,vpnl,2023-11-15_21h08.53.037,longbabyloc,2023.2.2,60.069953740292995,
,,,,,,,,,690.4247191610048,8,KW_2.mp4,KN,1,vpnl,2023-11-15_21h08.53.037,longbabyloc,2023.2.2,60.069953740292995,
,,,,,,,,,694.4046562410076,9,dumptruck9_1.mp4,KN,1,vpnl,2023-11-15_21h08.53.037,longbabyloc,2023.2.2,60.069953740292995,
,,,,,,,,,698.4356049550115,10,JC_hands_2.mp4,KN,1,vpnl,2023-11-15_21h08.53.037,longbabyloc,2023.2.2,60.069953740292995,
,,,,,,,,,702.4302841449971,11,blank.mp4,KN,1,vpnl,2023-11-15_21h08.53.037,longbabyloc,2023.2.2,60.069953740292995,
,,,,,,,,,706.4176737220114,12,car8_1.mp4,KN,1,vpnl,2023-11-15_21h08.53.037,longbabyloc,2023.2.2,60.069953740292995,
,,,,,,,,,710.4148590120021,13,blank.mp4,KN,1,vpnl,2023-11-15_21h08.53.037,longbabyloc,2023.2.2,60.069953740292995,
,,,,,,,,,714.4367105900019,14,BP_3.mp4,KN,1,vpnl,2023-11-15_21h08.53.037,longbabyloc,2023.2.2,60.069953740292995,
,,,,,,,,,718.3906092920079,15,bluemistystream.mp4,KN,1,vpnl,2023-11-15_21h08.53.037,longbabyloc,2023.2.2,60.069953740292995,
,,,,,,,,,722.4062241700012,16,JO_hands_2.mp4,KN,1,vpnl,2023-11-15_21h08.53.037,longbabyloc,2023.2.2,60.069953740292995,
,,,,,,,,,726.4125809410034,17,rockycliffbeach.mp4,KN,1,vpnl,2023-11-15_21h08.53.037,longbabyloc,2023.2.2,60.069953740292995,
,,,,,,,,,730.4096353269997,18,DO_4.mp4,KN,1,vpnl,2023-11-15_21h08.53.037,longbabyloc,2023.2.2,60.069953740292995,
,,,,,,,,,734.3973337120115,19,blank.mp4,KN,1,vpnl,2023-11-15_21h08.53.037,longbabyloc,2023.2.2,60.069953740292995,
,,,,,,,,,738.4012241879973,20,blueexcavator_3.mp4,KN,1,vpnl,2023-11-15_21h08.53.037,longbabyloc,2023.2.2,60.069953740292995,
,,,,,,,,,742.4151213320001,21,KP_hands_2.mp4,KN,1,vpnl,2023-11-15_21h08.53.037,longbabyloc,2023.2.2,60.069953740292995,
,,,,,,,,,746.42854966101,22,car2_1.mp4,KN,1,vpnl,2023-11-15_21h08.53.037,longbabyloc,2023.2.2,60.069953740292995,
,,,,,,,,,750.4153869430011,23,blank.mp4,KN,1,vpnl,2023-11-15_21h08.53.037,longbabyloc,2023.2.2,60.069953740292995,
,,,,,,,,,754.4094019180047,24,SS_2.mp4,KN,1,vpnl,2023-11-15_21h08.53.037,longbabyloc,2023.2.2,60.069953740292995,
,,,,,,,,,758.4027579230024,25,fastforestrapids.mp4,KN,1,vpnl,2023-11-15_21h08.53.037,longbabyloc,2023.2.2,60.069953740292995,
,,,,,,,,,762.4230659750028,26,JY_hands_1.mp4,KN,1,vpnl,2023-11-15_21h08.53.037,longbabyloc,2023.2.2,60.069953740292995,
,,,,,,,,,766.4450370720006,27,car1_1.mp4,KN,1,vpnl,2023-11-15_21h08.53.037,longbabyloc,2023.2.2,60.069953740292995,
,,,,,,,,,770.414463965004,28,evergreenforeststream.mp4,KN,1,vpnl,2023-11-15_21h08.53.037,longbabyloc,2023.2.2,60.069953740292995,
,,,,,,,,,774.4220729610097,29,KW_hands_3.mp4,KN,1,vpnl,2023-11-15_21h08.53.037,longbabyloc,2023.2.2,60.069953740292995,
,,,,,,,,,778.4169440999976,30,KP_3.mp4,KN,1,vpnl,2023-11-15_21h08.53.037,longbabyloc,2023.2.2,60.069953740292995,
,,,,,,,,,782.4124006580096,31,blank.mp4,KN,1,vpnl,2023-11-15_21h08.53.037,longbabyloc,2023.2.2,60.069953740292995,
,,,,,,,,,786.407085016006,32,dumptruck3_1.mp4,KN,1,vpnl,2023-11-15_21h08.53.037,longbabyloc,2023.2.2,60.069953740292995,
,,,,,,,,,790.4519601640059,33,sunnyriver.mp4,KN,1,vpnl,2023-11-15_21h08.53.037,longbabyloc,2023.2.2,60.069953740292995,
,,,,,,,,,794.4334573550004,34,JC_2.mp4,KN,1,vpnl,2023-11-15_21h08.53.037,longbabyloc,2023.2.2,60.069953740292995,
,,,,,,,,,798.4114926339971,35,IK_hands_2.mp4,KN,1,vpnl,2023-11-15_21h08.53.037,longbabyloc,2023.2.2,60.069953740292995,
,,,,,,,,,802.4368518429983,36,blank.mp4,,,,,,,,
