thisRow.t,notes,waiting_for_trigger_text.started,trigger.started,trigger.keys,trigger.rt,countdown.started,countdown.stopped,trial.stopped,stimuli.started,condition,stim_name,stimuli.stopped,participant,run,user,date,expName,psychopyVersion,frameRate,
,,338.88847916600935,338.88847916600935,t,17.018570319996797,,,,,,,,KN,1,vpnl,2023-11-15_21h08.53.037,longbabyloc,2023.2.2,60.069953740292995,
,,,,,,355.934054516998,361.934156525007,23.04161045300134,361.934156525007,1,blank-97.jpg,,KN,1,vpnl,2023-11-15_21h08.53.037,longbabyloc,2023.2.2,60.069953740292995,
,,,,,,,,,362.43590984201,1,blank-98.jpg,,KN,1,vpnl,2023-11-15_21h08.53.037,longbabyloc,2023.2.2,60.069953740292995,
,,,,,,,,,362.9358600190026,1,blank-99.jpg,,KN,1,vpnl,2023-11-15_21h08.53.037,longbabyloc,2023.2.2,60.069953740292995,
,,,,,,,,,363.4364180940029,1,blank-100.jpg,,KN,1,vpnl,2023-11-15_21h08.53.037,longbabyloc,2023.2.2,60.069953740292995,
,,,,,,,,,363.9381542970077,1,blank-101.jpg,,KN,1,vpnl,2023-11-15_21h08.53.037,longbabyloc,2023.2.2,60.069953740292995,
,,,,,,,,,364.45149148700875,1,blank-102.jpg,,KN,1,vpnl,2023-11-15_21h08.53.037,longbabyloc,2023.2.2,60.069953740292995,
,,,,,,,,,364.93453910099925,1,blank-103.jpg,,KN,1,vpnl,2023-11-15_21h08.53.037,longbabyloc,2023.2.2,60.069953740292995,
,,,,,,,,,365.4344915700058,1,blank-104.jpg,,KN,1,vpnl,2023-11-15_21h08.53.037,longbabyloc,2023.2.2,60.069953740292995,
,,,,,,,,,365.9375880360021,2,faces-97.jpg,,KN,1,vpnl,2023-11-15_21h08.53.037,longbabyloc,2023.2.2,60.069953740292995,
,,,,,,,,,366.4345975239994,2,faces-98.jpg,366.9344226510002,KN,1,vpnl,2023-11-15_21h08.53.037,longbabyloc,2023.2.2,60.069953740292995,
,,,,,,,,,366.9344226510002,2,faces-99.jpg,,KN,1,vpnl,2023-11-15_21h08.53.037,longbabyloc,2023.2.2,60.069953740292995,
,,,,,,,,,367.43573037900205,2,faces-100.jpg,,KN,1,vpnl,2023-11-15_21h08.53.037,longbabyloc,2023.2.2,60.069953740292995,
,,,,,,,,,367.9375857390114,2,faces-101.jpg,,KN,1,vpnl,2023-11-15_21h08.53.037,longbabyloc,2023.2.2,60.069953740292995,
,,,,,,,,,368.4348939150077,2,faces-102.jpg,,KN,1,vpnl,2023-11-15_21h08.53.037,longbabyloc,2023.2.2,60.069953740292995,
,,,,,,,,,368.9358601170097,2,faces-103.jpg,,KN,1,vpnl,2023-11-15_21h08.53.037,longbabyloc,2023.2.2,60.069953740292995,
,,,,,,,,,369.4360308239993,2,faces-104.jpg,,KN,1,vpnl,2023-11-15_21h08.53.037,longbabyloc,2023.2.2,60.069953740292995,
,,,,,,,,,369.9519682130049,3,blank-105.jpg,,KN,1,vpnl,2023-11-15_21h08.53.037,longbabyloc,2023.2.2,60.069953740292995,
,,,,,,,,,370.43559245399956,3,blank-106.jpg,,KN,1,vpnl,2023-11-15_21h08.53.037,longbabyloc,2023.2.2,60.069953740292995,
,,,,,,,,,370.9359093360108,3,blank-107.jpg,,KN,1,vpnl,2023-11-15_21h08.53.037,longbabyloc,2023.2.2,60.069953740292995,
,,,,,,,,,371.43622246800805,3,blank-108.jpg,,KN,1,vpnl,2023-11-15_21h08.53.037,longbabyloc,2023.2.2,60.069953740292995,
,,,,,,,,,371.937512842007,3,blank-109.jpg,,KN,1,vpnl,2023-11-15_21h08.53.037,longbabyloc,2023.2.2,60.069953740292995,
,,,,,,,,,372.45108347600035,3,blank-110.jpg,,KN,1,vpnl,2023-11-15_21h08.53.037,longbabyloc,2023.2.2,60.069953740292995,
,,,,,,,,,372.95195021500695,3,blank-111.jpg,,KN,1,vpnl,2023-11-15_21h08.53.037,longbabyloc,2023.2.2,60.069953740292995,
,,,,,,,,,373.43638498500513,3,blank-112.jpg,,KN,1,vpnl,2023-11-15_21h08.53.037,longbabyloc,2023.2.2,60.069953740292995,
,,,,,,,,,373.9479894350079,4,hands-97.jpg,,KN,1,vpnl,2023-11-15_21h08.53.037,longbabyloc,2023.2.2,60.069953740292995,
,,,,,,,,,374.44836961200053,4,hands-98.jpg,,KN,1,vpnl,2023-11-15_21h08.53.037,longbabyloc,2023.2.2,60.069953740292995,
,,,,,,,,,374.94835293700453,4,hands-99.jpg,,KN,1,vpnl,2023-11-15_21h08.53.037,longbabyloc,2023.2.2,60.069953740292995,
,,,,,,,,,375.4481987980107,4,hands-100.jpg,,KN,1,vpnl,2023-11-15_21h08.53.037,longbabyloc,2023.2.2,60.069953740292995,
,,,,,,,,,375.94774586500716,4,hands-101.jpg,,KN,1,vpnl,2023-11-15_21h08.53.037,longbabyloc,2023.2.2,60.069953740292995,
,,,,,,,,,376.44838484301,4,hands-102.jpg,,KN,1,vpnl,2023-11-15_21h08.53.037,longbabyloc,2023.2.2,60.069953740292995,
,,,,,,,,,376.94851365800423,4,hands-103.jpg,,KN,1,vpnl,2023-11-15_21h08.53.037,longbabyloc,2023.2.2,60.069953740292995,
,,,,,,,,,377.44801117500174,4,hands-104.jpg,,KN,1,vpnl,2023-11-15_21h08.53.037,longbabyloc,2023.2.2,60.069953740292995,
,,,,,,,,,377.9476770879992,5,scenes-97.jpg,,KN,1,vpnl,2023-11-15_21h08.53.037,longbabyloc,2023.2.2,60.069953740292995,
,,,,,,,,,378.4483597600047,5,scenes-98.jpg,,KN,1,vpnl,2023-11-15_21h08.53.037,longbabyloc,2023.2.2,60.069953740292995,
,,,,,,,,,378.94849895899824,5,scenes-99.jpg,,KN,1,vpnl,2023-11-15_21h08.53.037,longbabyloc,2023.2.2,60.069953740292995,
,,,,,,,,,379.44817294500535,5,scenes-100.jpg,,KN,1,vpnl,2023-11-15_21h08.53.037,longbabyloc,2023.2.2,60.069953740292995,
,,,,,,,,,379.94779548200313,5,scenes-101.jpg,,KN,1,vpnl,2023-11-15_21h08.53.037,longbabyloc,2023.2.2,60.069953740292995,
,,,,,,,,,380.4479579600011,5,scenes-102.jpg,,KN,1,vpnl,2023-11-15_21h08.53.037,longbabyloc,2023.2.2,60.069953740292995,
,,,,,,,,,380.94841047200316,5,scenes-103.jpg,,KN,1,vpnl,2023-11-15_21h08.53.037,longbabyloc,2023.2.2,60.069953740292995,
,,,,,,,,,381.4479995020083,5,scenes-104.jpg,,KN,1,vpnl,2023-11-15_21h08.53.037,longbabyloc,2023.2.2,60.069953740292995,
,,,,,,,,,381.94765119301155,6,cars-97.jpg,,KN,1,vpnl,2023-11-15_21h08.53.037,longbabyloc,2023.2.2,60.069953740292995,
,,,,,,,,,382.4481749210099,6,cars-98.jpg,,KN,1,vpnl,2023-11-15_21h08.53.037,longbabyloc,2023.2.2,60.069953740292995,
,,,,,,,,,382.94836412700533,6,cars-99.jpg,,KN,1,vpnl,2023-11-15_21h08.53.037,longbabyloc,2023.2.2,60.069953740292995,
,,,,,,,,,383.44804034600384,6,cars-100.jpg,,KN,1,vpnl,2023-11-15_21h08.53.037,longbabyloc,2023.2.2,60.069953740292995,
,,,,,,,,,383.9475984340097,6,cars-101.jpg,,KN,1,vpnl,2023-11-15_21h08.53.037,longbabyloc,2023.2.2,60.069953740292995,
,,,,,,,,,384.4481633420073,6,cars-102.jpg,,KN,1,vpnl,2023-11-15_21h08.53.037,longbabyloc,2023.2.2,60.069953740292995,
,,,,,,,,,384.94843058800325,6,cars-103.jpg,,KN,1,vpnl,2023-11-15_21h08.53.037,longbabyloc,2023.2.2,60.069953740292995,
,,,,,,,,,385.44777894399886,6,cars-104.jpg,,KN,1,vpnl,2023-11-15_21h08.53.037,longbabyloc,2023.2.2,60.069953740292995,
,,,,,,,,,385.9475921789999,7,faces-105.jpg,,KN,1,vpnl,2023-11-15_21h08.53.037,longbabyloc,2023.2.2,60.069953740292995,
,,,,,,,,,386.44815895101056,7,faces-106.jpg,,KN,1,vpnl,2023-11-15_21h08.53.037,longbabyloc,2023.2.2,60.069953740292995,
,,,,,,,,,386.9481467720034,7,faces-107.jpg,,KN,1,vpnl,2023-11-15_21h08.53.037,longbabyloc,2023.2.2,60.069953740292995,
,,,,,,,,,387.4479837270046,7,faces-108.jpg,,KN,1,vpnl,2023-11-15_21h08.53.037,longbabyloc,2023.2.2,60.069953740292995,
,,,,,,,,,387.94753239701095,7,faces-109.jpg,,KN,1,vpnl,2023-11-15_21h08.53.037,longbabyloc,2023.2.2,60.069953740292995,
,,,,,,,,,388.4479055710108,7,faces-110.jpg,,KN,1,vpnl,2023-11-15_21h08.53.037,longbabyloc,2023.2.2,60.069953740292995,
,,,,,,,,,388.94834946800256,7,faces-111.jpg,,KN,1,vpnl,2023-11-15_21h08.53.037,longbabyloc,2023.2.2,60.069953740292995,
,,,,,,,,,389.44800392200705,7,faces-112.jpg,,KN,1,vpnl,2023-11-15_21h08.53.037,longbabyloc,2023.2.2,60.069953740292995,
,,,,,,,,,389.9475420009985,8,blank-113.jpg,,KN,1,vpnl,2023-11-15_21h08.53.037,longbabyloc,2023.2.2,60.069953740292995,
,,,,,,,,,390.4477142750111,8,blank-114.jpg,,KN,1,vpnl,2023-11-15_21h08.53.037,longbabyloc,2023.2.2,60.069953740292995,
,,,,,,,,,390.9484720110049,8,blank-115.jpg,,KN,1,vpnl,2023-11-15_21h08.53.037,longbabyloc,2023.2.2,60.069953740292995,
,,,,,,,,,391.44780559799983,8,blank-116.jpg,,KN,1,vpnl,2023-11-15_21h08.53.037,longbabyloc,2023.2.2,60.069953740292995,
,,,,,,,,,391.94745974600664,8,blank-117.jpg,,KN,1,vpnl,2023-11-15_21h08.53.037,longbabyloc,2023.2.2,60.069953740292995,
,,,,,,,,,392.44791131500097,8,blank-118.jpg,,KN,1,vpnl,2023-11-15_21h08.53.037,longbabyloc,2023.2.2,60.069953740292995,
,,,,,,,,,392.9481494089996,8,blank-119.jpg,,KN,1,vpnl,2023-11-15_21h08.53.037,longbabyloc,2023.2.2,60.069953740292995,
,,,,,,,,,393.4478417200007,8,blank-120.jpg,,KN,1,vpnl,2023-11-15_21h08.53.037,longbabyloc,2023.2.2,60.069953740292995,
,,,,,,,,,393.9474372350087,9,cars-105.jpg,,KN,1,vpnl,2023-11-15_21h08.53.037,longbabyloc,2023.2.2,60.069953740292995,
,,,,,,,,,394.44784916999924,9,cars-106.jpg,,KN,1,vpnl,2023-11-15_21h08.53.037,longbabyloc,2023.2.2,60.069953740292995,
,,,,,,,,,394.94796046700503,9,cars-107.jpg,,KN,1,vpnl,2023-11-15_21h08.53.037,longbabyloc,2023.2.2,60.069953740292995,
,,,,,,,,,395.4475737850007,9,cars-108.jpg,,KN,1,vpnl,2023-11-15_21h08.53.037,longbabyloc,2023.2.2,60.069953740292995,
,,,,,,,,,395.94731379100995,9,cars-109.jpg,,KN,1,vpnl,2023-11-15_21h08.53.037,longbabyloc,2023.2.2,60.069953740292995,
,,,,,,,,,396.44773426500615,9,cars-110.jpg,,KN,1,vpnl,2023-11-15_21h08.53.037,longbabyloc,2023.2.2,60.069953740292995,
,,,,,,,,,396.94796616501117,9,cars-111.jpg,,KN,1,vpnl,2023-11-15_21h08.53.037,longbabyloc,2023.2.2,60.069953740292995,
,,,,,,,,,397.4476947689982,9,cars-112.jpg,,KN,1,vpnl,2023-11-15_21h08.53.037,longbabyloc,2023.2.2,60.069953740292995,
,,,,,,,,,397.94727313600015,10,scenes-105.jpg,,KN,1,vpnl,2023-11-15_21h08.53.037,longbabyloc,2023.2.2,60.069953740292995,
,,,,,,,,,398.4476416520047,10,scenes-106.jpg,,KN,1,vpnl,2023-11-15_21h08.53.037,longbabyloc,2023.2.2,60.069953740292995,
,,,,,,,,,398.9480468230031,10,scenes-107.jpg,,KN,1,vpnl,2023-11-15_21h08.53.037,longbabyloc,2023.2.2,60.069953740292995,
,,,,,,,,,399.4477771820093,10,scenes-108.jpg,,KN,1,vpnl,2023-11-15_21h08.53.037,longbabyloc,2023.2.2,60.069953740292995,
,,,,,,,,,399.9472265939985,10,scenes-109.jpg,,KN,1,vpnl,2023-11-15_21h08.53.037,longbabyloc,2023.2.2,60.069953740292995,
,,,,,,,,,400.44752593300655,10,scenes-110.jpg,,KN,1,vpnl,2023-11-15_21h08.53.037,longbabyloc,2023.2.2,60.069953740292995,
,,,,,,,,,400.9480520250072,10,scenes-111.jpg,,KN,1,vpnl,2023-11-15_21h08.53.037,longbabyloc,2023.2.2,60.069953740292995,
,,,,,,,,,401.44761635801115,10,scenes-112.jpg,,KN,1,vpnl,2023-11-15_21h08.53.037,longbabyloc,2023.2.2,60.069953740292995,
,,,,,,,,,401.9472358280036,11,hands-105.jpg,,KN,1,vpnl,2023-11-15_21h08.53.037,longbabyloc,2023.2.2,60.069953740292995,
,,,,,,,,,402.4478691640106,11,hands-106.jpg,,KN,1,vpnl,2023-11-15_21h08.53.037,longbabyloc,2023.2.2,60.069953740292995,
,,,,,,,,,402.94799181200506,11,hands-107.jpg,,KN,1,vpnl,2023-11-15_21h08.53.037,longbabyloc,2023.2.2,60.069953740292995,
,,,,,,,,,403.44774853100535,11,hands-108.jpg,,KN,1,vpnl,2023-11-15_21h08.53.037,longbabyloc,2023.2.2,60.069953740292995,
,,,,,,,,,403.947405044004,11,hands-109.jpg,,KN,1,vpnl,2023-11-15_21h08.53.037,longbabyloc,2023.2.2,60.069953740292995,
,,,,,,,,,404.44756238099944,11,hands-110.jpg,,KN,1,vpnl,2023-11-15_21h08.53.037,longbabyloc,2023.2.2,60.069953740292995,
,,,,,,,,,404.94808531799936,11,hands-111.jpg,,KN,1,vpnl,2023-11-15_21h08.53.037,longbabyloc,2023.2.2,60.069953740292995,
,,,,,,,,,405.44740314999945,11,hands-112.jpg,,KN,1,vpnl,2023-11-15_21h08.53.037,longbabyloc,2023.2.2,60.069953740292995,
,,,,,,,,,405.94712438900024,12,faces-113.jpg,,KN,1,vpnl,2023-11-15_21h08.53.037,longbabyloc,2023.2.2,60.069953740292995,
,,,,,,,,,406.44751433099736,12,faces-114.jpg,,KN,1,vpnl,2023-11-15_21h08.53.037,longbabyloc,2023.2.2,60.069953740292995,
,,,,,,,,,406.9477173839987,12,faces-115.jpg,,KN,1,vpnl,2023-11-15_21h08.53.037,longbabyloc,2023.2.2,60.069953740292995,
,,,,,,,,,407.44759506599803,12,faces-116.jpg,,KN,1,vpnl,2023-11-15_21h08.53.037,longbabyloc,2023.2.2,60.069953740292995,
,,,,,,,,,407.94706309800677,12,faces-117.jpg,,KN,1,vpnl,2023-11-15_21h08.53.037,longbabyloc,2023.2.2,60.069953740292995,
,,,,,,,,,408.4474276310066,12,faces-118.jpg,,KN,1,vpnl,2023-11-15_21h08.53.037,longbabyloc,2023.2.2,60.069953740292995,
,,,,,,,,,408.9478977270046,12,faces-119.jpg,,KN,1,vpnl,2023-11-15_21h08.53.037,longbabyloc,2023.2.2,60.069953740292995,
,,,,,,,,,409.4475487090094,12,faces-120.jpg,,KN,1,vpnl,2023-11-15_21h08.53.037,longbabyloc,2023.2.2,60.069953740292995,
,,,,,,,,,409.94698838899785,13,scenes-113.jpg,,KN,1,vpnl,2023-11-15_21h08.53.037,longbabyloc,2023.2.2,60.069953740292995,
,,,,,,,,,410.44725810500677,13,scenes-114.jpg,,KN,1,vpnl,2023-11-15_21h08.53.037,longbabyloc,2023.2.2,60.069953740292995,
,,,,,,,,,410.9478678400046,13,scenes-115.jpg,,KN,1,vpnl,2023-11-15_21h08.53.037,longbabyloc,2023.2.2,60.069953740292995,
,,,,,,,,,411.44744908300345,13,scenes-116.jpg,,KN,1,vpnl,2023-11-15_21h08.53.037,longbabyloc,2023.2.2,60.069953740292995,
,,,,,,,,,411.9470494540001,13,scenes-117.jpg,,KN,1,vpnl,2023-11-15_21h08.53.037,longbabyloc,2023.2.2,60.069953740292995,
,,,,,,,,,412.4472058340034,13,scenes-118.jpg,,KN,1,vpnl,2023-11-15_21h08.53.037,longbabyloc,2023.2.2,60.069953740292995,
,,,,,,,,,412.9476728419977,13,scenes-119.jpg,,KN,1,vpnl,2023-11-15_21h08.53.037,longbabyloc,2023.2.2,60.069953740292995,
,,,,,,,,,413.4476916860003,13,scenes-120.jpg,,KN,1,vpnl,2023-11-15_21h08.53.037,longbabyloc,2023.2.2,60.069953740292995,
,,,,,,,,,413.9470486659993,14,blank-121.jpg,,KN,1,vpnl,2023-11-15_21h08.53.037,longbabyloc,2023.2.2,60.069953740292995,
,,,,,,,,,414.4475518929976,14,blank-122.jpg,,KN,1,vpnl,2023-11-15_21h08.53.037,longbabyloc,2023.2.2,60.069953740292995,
,,,,,,,,,414.94762188300956,14,blank-123.jpg,,KN,1,vpnl,2023-11-15_21h08.53.037,longbabyloc,2023.2.2,60.069953740292995,
,,,,,,,,,415.44726218700816,14,blank-124.jpg,,KN,1,vpnl,2023-11-15_21h08.53.037,longbabyloc,2023.2.2,60.069953740292995,
,,,,,,,,,415.94708153900865,14,blank-125.jpg,,KN,1,vpnl,2023-11-15_21h08.53.037,longbabyloc,2023.2.2,60.069953740292995,
,,,,,,,,,416.44739117100835,14,blank-126.jpg,,KN,1,vpnl,2023-11-15_21h08.53.037,longbabyloc,2023.2.2,60.069953740292995,
,,,,,,,,,416.95132845200715,14,blank-127.jpg,,KN,1,vpnl,2023-11-15_21h08.53.037,longbabyloc,2023.2.2,60.069953740292995,
,,,,,,,,,417.4472679520113,14,blank-128.jpg,,KN,1,vpnl,2023-11-15_21h08.53.037,longbabyloc,2023.2.2,60.069953740292995,
,,,,,,,,,417.94710370300163,15,cars-113.jpg,,KN,1,vpnl,2023-11-15_21h08.53.037,longbabyloc,2023.2.2,60.069953740292995,
,,,,,,,,,418.4473015130061,15,cars-114.jpg,,KN,1,vpnl,2023-11-15_21h08.53.037,longbabyloc,2023.2.2,60.069953740292995,
,,,,,,,,,418.94770759300445,15,cars-115.jpg,,KN,1,vpnl,2023-11-15_21h08.53.037,longbabyloc,2023.2.2,60.069953740292995,
,,,,,,,,,419.4474351550016,15,cars-116.jpg,,KN,1,vpnl,2023-11-15_21h08.53.037,longbabyloc,2023.2.2,60.069953740292995,
,,,,,,,,,419.9468592560006,15,cars-117.jpg,,KN,1,vpnl,2023-11-15_21h08.53.037,longbabyloc,2023.2.2,60.069953740292995,
,,,,,,,,,420.44723992999934,15,cars-118.jpg,,KN,1,vpnl,2023-11-15_21h08.53.037,longbabyloc,2023.2.2,60.069953740292995,
,,,,,,,,,420.94759934200556,15,cars-119.jpg,,KN,1,vpnl,2023-11-15_21h08.53.037,longbabyloc,2023.2.2,60.069953740292995,
,,,,,,,,,421.4474518670031,15,cars-120.jpg,,KN,1,vpnl,2023-11-15_21h08.53.037,longbabyloc,2023.2.2,60.069953740292995,
,,,,,,,,,421.9468443689984,16,hands-113.jpg,,KN,1,vpnl,2023-11-15_21h08.53.037,longbabyloc,2023.2.2,60.069953740292995,
,,,,,,,,,422.4473494289996,16,hands-114.jpg,,KN,1,vpnl,2023-11-15_21h08.53.037,longbabyloc,2023.2.2,60.069953740292995,
,,,,,,,,,422.94772885700513,16,hands-115.jpg,,KN,1,vpnl,2023-11-15_21h08.53.037,longbabyloc,2023.2.2,60.069953740292995,
,,,,,,,,,423.4473174279992,16,hands-116.jpg,,KN,1,vpnl,2023-11-15_21h08.53.037,longbabyloc,2023.2.2,60.069953740292995,
,,,,,,,,,423.9469495850062,16,hands-117.jpg,,KN,1,vpnl,2023-11-15_21h08.53.037,longbabyloc,2023.2.2,60.069953740292995,
,,,,,,,,,424.44716459199844,16,hands-118.jpg,,KN,1,vpnl,2023-11-15_21h08.53.037,longbabyloc,2023.2.2,60.069953740292995,
,,,,,,,,,424.94776746501157,16,hands-119.jpg,,KN,1,vpnl,2023-11-15_21h08.53.037,longbabyloc,2023.2.2,60.069953740292995,
,,,,,,,,,425.4470854289975,16,hands-120.jpg,,KN,1,vpnl,2023-11-15_21h08.53.037,longbabyloc,2023.2.2,60.069953740292995,
,,,,,,,,,425.946852877998,17,cars-121.jpg,,KN,1,vpnl,2023-11-15_21h08.53.037,longbabyloc,2023.2.2,60.069953740292995,
,,,,,,,,,426.44695526100986,17,cars-122.jpg,,KN,1,vpnl,2023-11-15_21h08.53.037,longbabyloc,2023.2.2,60.069953740292995,
,,,,,,,,,426.9474539840012,17,cars-123.jpg,,KN,1,vpnl,2023-11-15_21h08.53.037,longbabyloc,2023.2.2,60.069953740292995,
,,,,,,,,,427.4506548560021,17,cars-124.jpg,,KN,1,vpnl,2023-11-15_21h08.53.037,longbabyloc,2023.2.2,60.069953740292995,
,,,,,,,,,427.9466873190104,17,cars-125.jpg,,KN,1,vpnl,2023-11-15_21h08.53.037,longbabyloc,2023.2.2,60.069953740292995,
,,,,,,,,,428.44731097100885,17,cars-126.jpg,,KN,1,vpnl,2023-11-15_21h08.53.037,longbabyloc,2023.2.2,60.069953740292995,
,,,,,,,,,428.94737844400515,17,cars-127.jpg,,KN,1,vpnl,2023-11-15_21h08.53.037,longbabyloc,2023.2.2,60.069953740292995,
,,,,,,,,,429.4471380199975,17,cars-128.jpg,,KN,1,vpnl,2023-11-15_21h08.53.037,longbabyloc,2023.2.2,60.069953740292995,
,,,,,,,,,429.94682447300875,18,hands-121.jpg,,KN,1,vpnl,2023-11-15_21h08.53.037,longbabyloc,2023.2.2,60.069953740292995,
,,,,,,,,,430.44727549100935,18,hands-122.jpg,,KN,1,vpnl,2023-11-15_21h08.53.037,longbabyloc,2023.2.2,60.069953740292995,
,,,,,,,,,430.94773945100314,18,hands-123.jpg,,KN,1,vpnl,2023-11-15_21h08.53.037,longbabyloc,2023.2.2,60.069953740292995,
,,,,,,,,,431.4469722280046,18,hands-124.jpg,,KN,1,vpnl,2023-11-15_21h08.53.037,longbabyloc,2023.2.2,60.069953740292995,
,,,,,,,,,431.9467922030017,18,hands-125.jpg,,KN,1,vpnl,2023-11-15_21h08.53.037,longbabyloc,2023.2.2,60.069953740292995,
,,,,,,,,,432.4471155689971,18,hands-126.jpg,,KN,1,vpnl,2023-11-15_21h08.53.037,longbabyloc,2023.2.2,60.069953740292995,
,,,,,,,,,432.9473176050087,18,hands-127.jpg,,KN,1,vpnl,2023-11-15_21h08.53.037,longbabyloc,2023.2.2,60.069953740292995,
,,,,,,,,,433.4470077040023,18,hands-128.jpg,,KN,1,vpnl,2023-11-15_21h08.53.037,longbabyloc,2023.2.2,60.069953740292995,
,,,,,,,,,433.9469004929997,19,scenes-121.jpg,,KN,1,vpnl,2023-11-15_21h08.53.037,longbabyloc,2023.2.2,60.069953740292995,
,,,,,,,,,434.44709282700205,19,scenes-122.jpg,,KN,1,vpnl,2023-11-15_21h08.53.037,longbabyloc,2023.2.2,60.069953740292995,
,,,,,,,,,434.94725909500266,19,scenes-123.jpg,,KN,1,vpnl,2023-11-15_21h08.53.037,longbabyloc,2023.2.2,60.069953740292995,
,,,,,,,,,435.4467946310033,19,scenes-124.jpg,,KN,1,vpnl,2023-11-15_21h08.53.037,longbabyloc,2023.2.2,60.069953740292995,
,,,,,,,,,435.946503448009,19,scenes-125.jpg,,KN,1,vpnl,2023-11-15_21h08.53.037,longbabyloc,2023.2.2,60.069953740292995,
,,,,,,,,,436.4505009580025,19,scenes-126.jpg,,KN,1,vpnl,2023-11-15_21h08.53.037,longbabyloc,2023.2.2,60.069953740292995,
,,,,,,,,,436.9471909050044,19,scenes-127.jpg,,KN,1,vpnl,2023-11-15_21h08.53.037,longbabyloc,2023.2.2,60.069953740292995,
,,,,,,,,,437.447031942007,19,scenes-128.jpg,,KN,1,vpnl,2023-11-15_21h08.53.037,longbabyloc,2023.2.2,60.069953740292995,
,,,,,,,,,437.9464943570056,20,blank-129.jpg,,KN,1,vpnl,2023-11-15_21h08.53.037,longbabyloc,2023.2.2,60.069953740292995,
,,,,,,,,,438.4470046470087,20,blank-130.jpg,,KN,1,vpnl,2023-11-15_21h08.53.037,longbabyloc,2023.2.2,60.069953740292995,
,,,,,,,,,438.94733213201107,20,blank-131.jpg,,KN,1,vpnl,2023-11-15_21h08.53.037,longbabyloc,2023.2.2,60.069953740292995,
,,,,,,,,,439.44715891900705,20,blank-132.jpg,,KN,1,vpnl,2023-11-15_21h08.53.037,longbabyloc,2023.2.2,60.069953740292995,
,,,,,,,,,439.9467168300034,20,blank-133.jpg,,KN,1,vpnl,2023-11-15_21h08.53.037,longbabyloc,2023.2.2,60.069953740292995,
,,,,,,,,,440.4467451040109,20,blank-134.jpg,,KN,1,vpnl,2023-11-15_21h08.53.037,longbabyloc,2023.2.2,60.069953740292995,
,,,,,,,,,440.94722164599807,20,blank-135.jpg,,KN,1,vpnl,2023-11-15_21h08.53.037,longbabyloc,2023.2.2,60.069953740292995,
,,,,,,,,,441.44688864200725,20,blank-136.jpg,,KN,1,vpnl,2023-11-15_21h08.53.037,longbabyloc,2023.2.2,60.069953740292995,
,,,,,,,,,441.9465408780088,21,faces-121.jpg,,KN,1,vpnl,2023-11-15_21h08.53.037,longbabyloc,2023.2.2,60.069953740292995,
,,,,,,,,,442.4467423140013,21,faces-122.jpg,,KN,1,vpnl,2023-11-15_21h08.53.037,longbabyloc,2023.2.2,60.069953740292995,
,,,,,,,,,442.94735321799817,21,faces-123.jpg,,KN,1,vpnl,2023-11-15_21h08.53.037,longbabyloc,2023.2.2,60.069953740292995,
,,,,,,,,,443.44688184800907,21,faces-124.jpg,,KN,1,vpnl,2023-11-15_21h08.53.037,longbabyloc,2023.2.2,60.069953740292995,
,,,,,,,,,443.94654457300203,21,faces-125.jpg,,KN,1,vpnl,2023-11-15_21h08.53.037,longbabyloc,2023.2.2,60.069953740292995,
,,,,,,,,,444.44678275100887,21,faces-126.jpg,,KN,1,vpnl,2023-11-15_21h08.53.037,longbabyloc,2023.2.2,60.069953740292995,
,,,,,,,,,444.94733801799885,21,faces-127.jpg,,KN,1,vpnl,2023-11-15_21h08.53.037,longbabyloc,2023.2.2,60.069953740292995,
,,,,,,,,,445.4467967439996,21,faces-128.jpg,,KN,1,vpnl,2023-11-15_21h08.53.037,longbabyloc,2023.2.2,60.069953740292995,
,,,,,,,,,445.94632010901114,22,hands-129.jpg,,KN,1,vpnl,2023-11-15_21h08.53.037,longbabyloc,2023.2.2,60.069953740292995,
,,,,,,,,,446.447204437005,22,hands-130.jpg,,KN,1,vpnl,2023-11-15_21h08.53.037,longbabyloc,2023.2.2,60.069953740292995,
,,,,,,,,,446.9470970429975,22,hands-131.jpg,,KN,1,vpnl,2023-11-15_21h08.53.037,longbabyloc,2023.2.2,60.069953740292995,
,,,,,,,,,447.44673738900747,22,hands-132.jpg,,KN,1,vpnl,2023-11-15_21h08.53.037,longbabyloc,2023.2.2,60.069953740292995,
,,,,,,,,,447.9463980240107,22,hands-133.jpg,,KN,1,vpnl,2023-11-15_21h08.53.037,longbabyloc,2023.2.2,60.069953740292995,
,,,,,,,,,448.446879702009,22,hands-134.jpg,,KN,1,vpnl,2023-11-15_21h08.53.037,longbabyloc,2023.2.2,60.069953740292995,
,,,,,,,,,448.9470150670095,22,hands-135.jpg,,KN,1,vpnl,2023-11-15_21h08.53.037,longbabyloc,2023.2.2,60.069953740292995,
,,,,,,,,,449.4467994370061,22,hands-136.jpg,,KN,1,vpnl,2023-11-15_21h08.53.037,longbabyloc,2023.2.2,60.069953740292995,
,,,,,,,,,449.9465083670075,23,faces-129.jpg,,KN,1,vpnl,2023-11-15_21h08.53.037,longbabyloc,2023.2.2,60.069953740292995,
,,,,,,,,,450.4467663520045,23,faces-130.jpg,,KN,1,vpnl,2023-11-15_21h08.53.037,longbabyloc,2023.2.2,60.069953740292995,
,,,,,,,,,450.9505554940115,23,faces-131.jpg,,KN,1,vpnl,2023-11-15_21h08.53.037,longbabyloc,2023.2.2,60.069953740292995,
,,,,,,,,,451.4466567449999,23,faces-132.jpg,,KN,1,vpnl,2023-11-15_21h08.53.037,longbabyloc,2023.2.2,60.069953740292995,
,,,,,,,,,451.9465818370081,23,faces-133.jpg,,KN,1,vpnl,2023-11-15_21h08.53.037,longbabyloc,2023.2.2,60.069953740292995,
,,,,,,,,,452.44671036000364,23,faces-134.jpg,,KN,1,vpnl,2023-11-15_21h08.53.037,longbabyloc,2023.2.2,60.069953740292995,
,,,,,,,,,452.9471099270013,23,faces-135.jpg,,KN,1,vpnl,2023-11-15_21h08.53.037,longbabyloc,2023.2.2,60.069953740292995,
,,,,,,,,,453.44666226700065,23,faces-136.jpg,,KN,1,vpnl,2023-11-15_21h08.53.037,longbabyloc,2023.2.2,60.069953740292995,
,,,,,,,,,453.9465185959998,24,cars-129.jpg,,KN,1,vpnl,2023-11-15_21h08.53.037,longbabyloc,2023.2.2,60.069953740292995,
,,,,,,,,,454.44685594200564,24,cars-130.jpg,,KN,1,vpnl,2023-11-15_21h08.53.037,longbabyloc,2023.2.2,60.069953740292995,
,,,,,,,,,454.94714450099855,24,cars-131.jpg,,KN,1,vpnl,2023-11-15_21h08.53.037,longbabyloc,2023.2.2,60.069953740292995,
,,,,,,,,,455.4464928610105,24,cars-132.jpg,,KN,1,vpnl,2023-11-15_21h08.53.037,longbabyloc,2023.2.2,60.069953740292995,
,,,,,,,,,455.9462987480074,24,cars-133.jpg,,KN,1,vpnl,2023-11-15_21h08.53.037,longbabyloc,2023.2.2,60.069953740292995,
,,,,,,,,,456.4466923620057,24,cars-134.jpg,,KN,1,vpnl,2023-11-15_21h08.53.037,longbabyloc,2023.2.2,60.069953740292995,
,,,,,,,,,456.94696815899806,24,cars-135.jpg,,KN,1,vpnl,2023-11-15_21h08.53.037,longbabyloc,2023.2.2,60.069953740292995,
,,,,,,,,,457.44643866100523,24,cars-136.jpg,,KN,1,vpnl,2023-11-15_21h08.53.037,longbabyloc,2023.2.2,60.069953740292995,
,,,,,,,,,457.94621066300897,25,blank-137.jpg,,KN,1,vpnl,2023-11-15_21h08.53.037,longbabyloc,2023.2.2,60.069953740292995,
,,,,,,,,,458.45013370800007,25,blank-138.jpg,,KN,1,vpnl,2023-11-15_21h08.53.037,longbabyloc,2023.2.2,60.069953740292995,
,,,,,,,,,458.9469856460055,25,blank-139.jpg,,KN,1,vpnl,2023-11-15_21h08.53.037,longbabyloc,2023.2.2,60.069953740292995,
,,,,,,,,,459.44711523300793,25,blank-140.jpg,,KN,1,vpnl,2023-11-15_21h08.53.037,longbabyloc,2023.2.2,60.069953740292995,
,,,,,,,,,459.9461435819976,25,blank-141.jpg,,KN,1,vpnl,2023-11-15_21h08.53.037,longbabyloc,2023.2.2,60.069953740292995,
,,,,,,,,,460.4464901629981,25,blank-142.jpg,,KN,1,vpnl,2023-11-15_21h08.53.037,longbabyloc,2023.2.2,60.069953740292995,
,,,,,,,,,460.94681812000636,25,blank-143.jpg,,KN,1,vpnl,2023-11-15_21h08.53.037,longbabyloc,2023.2.2,60.069953740292995,
,,,,,,,,,461.4467547480017,25,blank-144.jpg,,KN,1,vpnl,2023-11-15_21h08.53.037,longbabyloc,2023.2.2,60.069953740292995,
,,,,,,,,,461.9460792440077,26,scenes-129.jpg,,KN,1,vpnl,2023-11-15_21h08.53.037,longbabyloc,2023.2.2,60.069953740292995,
,,,,,,,,,462.44659298600163,26,scenes-130.jpg,,KN,1,vpnl,2023-11-15_21h08.53.037,longbabyloc,2023.2.2,60.069953740292995,
,,,,,,,,,462.94677504700667,26,scenes-131.jpg,,KN,1,vpnl,2023-11-15_21h08.53.037,longbabyloc,2023.2.2,60.069953740292995,
,,,,,,,,,463.44665185800113,26,scenes-132.jpg,,KN,1,vpnl,2023-11-15_21h08.53.037,longbabyloc,2023.2.2,60.069953740292995,
,,,,,,,,,463.9463689760014,26,scenes-133.jpg,,KN,1,vpnl,2023-11-15_21h08.53.037,longbabyloc,2023.2.2,60.069953740292995,
,,,,,,,,,464.4467010080116,26,scenes-134.jpg,,KN,1,vpnl,2023-11-15_21h08.53.037,longbabyloc,2023.2.2,60.069953740292995,
,,,,,,,,,464.9461859150033,26,scenes-135.jpg,,KN,1,vpnl,2023-11-15_21h08.53.037,longbabyloc,2023.2.2,60.069953740292995,
,,,,,,,,,465.4464656880009,26,scenes-136.jpg,,KN,1,vpnl,2023-11-15_21h08.53.037,longbabyloc,2023.2.2,60.069953740292995,
,,,,,,,,,465.9459932690079,27,cars-137.jpg,,KN,1,vpnl,2023-11-15_21h08.53.037,longbabyloc,2023.2.2,60.069953740292995,
,,,,,,,,,466.4464980519988,27,cars-138.jpg,,KN,1,vpnl,2023-11-15_21h08.53.037,longbabyloc,2023.2.2,60.069953740292995,
,,,,,,,,,466.9468334080011,27,cars-139.jpg,,KN,1,vpnl,2023-11-15_21h08.53.037,longbabyloc,2023.2.2,60.069953740292995,
,,,,,,,,,467.44644078701094,27,cars-140.jpg,,KN,1,vpnl,2023-11-15_21h08.53.037,longbabyloc,2023.2.2,60.069953740292995,
,,,,,,,,,467.94611187500414,27,cars-141.jpg,,KN,1,vpnl,2023-11-15_21h08.53.037,longbabyloc,2023.2.2,60.069953740292995,
,,,,,,,,,468.4463065940072,27,cars-142.jpg,,KN,1,vpnl,2023-11-15_21h08.53.037,longbabyloc,2023.2.2,60.069953740292995,
,,,,,,,,,468.9469258309982,27,cars-143.jpg,,KN,1,vpnl,2023-11-15_21h08.53.037,longbabyloc,2023.2.2,60.069953740292995,
,,,,,,,,,469.4464200980001,27,cars-144.jpg,,KN,1,vpnl,2023-11-15_21h08.53.037,longbabyloc,2023.2.2,60.069953740292995,
,,,,,,,,,469.94597096300276,28,scenes-137.jpg,,KN,1,vpnl,2023-11-15_21h08.53.037,longbabyloc,2023.2.2,60.069953740292995,
,,,,,,,,,470.4462340760074,28,scenes-138.jpg,,KN,1,vpnl,2023-11-15_21h08.53.037,longbabyloc,2023.2.2,60.069953740292995,
,,,,,,,,,470.9467681660026,28,scenes-139.jpg,,KN,1,vpnl,2023-11-15_21h08.53.037,longbabyloc,2023.2.2,60.069953740292995,
,,,,,,,,,471.44636035700387,28,scenes-140.jpg,,KN,1,vpnl,2023-11-15_21h08.53.037,longbabyloc,2023.2.2,60.069953740292995,
,,,,,,,,,471.9459593490028,28,scenes-141.jpg,,KN,1,vpnl,2023-11-15_21h08.53.037,longbabyloc,2023.2.2,60.069953740292995,
,,,,,,,,,472.446199241007,28,scenes-142.jpg,,KN,1,vpnl,2023-11-15_21h08.53.037,longbabyloc,2023.2.2,60.069953740292995,
,,,,,,,,,472.9469647740043,28,scenes-143.jpg,,KN,1,vpnl,2023-11-15_21h08.53.037,longbabyloc,2023.2.2,60.069953740292995,
,,,,,,,,,473.4463418420055,28,scenes-144.jpg,,KN,1,vpnl,2023-11-15_21h08.53.037,longbabyloc,2023.2.2,60.069953740292995,
,,,,,,,,,473.94618096901104,29,hands-137.jpg,,KN,1,vpnl,2023-11-15_21h08.53.037,longbabyloc,2023.2.2,60.069953740292995,
,,,,,,,,,474.4460573539982,29,hands-138.jpg,,KN,1,vpnl,2023-11-15_21h08.53.037,longbabyloc,2023.2.2,60.069953740292995,
,,,,,,,,,474.94670921500074,29,hands-139.jpg,,KN,1,vpnl,2023-11-15_21h08.53.037,longbabyloc,2023.2.2,60.069953740292995,
,,,,,,,,,475.4465031340078,29,hands-140.jpg,,KN,1,vpnl,2023-11-15_21h08.53.037,longbabyloc,2023.2.2,60.069953740292995,
,,,,,,,,,475.9457911710051,29,hands-141.jpg,,KN,1,vpnl,2023-11-15_21h08.53.037,longbabyloc,2023.2.2,60.069953740292995,
,,,,,,,,,476.4462629040063,29,hands-142.jpg,,KN,1,vpnl,2023-11-15_21h08.53.037,longbabyloc,2023.2.2,60.069953740292995,
,,,,,,,,,476.9465885719983,29,hands-143.jpg,,KN,1,vpnl,2023-11-15_21h08.53.037,longbabyloc,2023.2.2,60.069953740292995,
,,,,,,,,,477.44614012900274,29,hands-144.jpg,,KN,1,vpnl,2023-11-15_21h08.53.037,longbabyloc,2023.2.2,60.069953740292995,
,,,,,,,,,477.9459870550054,30,faces-137.jpg,,KN,1,vpnl,2023-11-15_21h08.53.037,longbabyloc,2023.2.2,60.069953740292995,
,,,,,,,,,478.4464947439992,30,faces-138.jpg,,KN,1,vpnl,2023-11-15_21h08.53.037,longbabyloc,2023.2.2,60.069953740292995,
,,,,,,,,,478.9466368350113,30,faces-139.jpg,,KN,1,vpnl,2023-11-15_21h08.53.037,longbabyloc,2023.2.2,60.069953740292995,
,,,,,,,,,479.44622999800777,30,faces-140.jpg,,KN,1,vpnl,2023-11-15_21h08.53.037,longbabyloc,2023.2.2,60.069953740292995,
,,,,,,,,,479.94572132801113,30,faces-141.jpg,,KN,1,vpnl,2023-11-15_21h08.53.037,longbabyloc,2023.2.2,60.069953740292995,
,,,,,,,,,480.44612808800593,30,faces-142.jpg,,KN,1,vpnl,2023-11-15_21h08.53.037,longbabyloc,2023.2.2,60.069953740292995,
,,,,,,,,,480.9465568040032,30,faces-143.jpg,,KN,1,vpnl,2023-11-15_21h08.53.037,longbabyloc,2023.2.2,60.069953740292995,
,,,,,,,,,481.4460638300079,30,faces-144.jpg,,KN,1,vpnl,2023-11-15_21h08.53.037,longbabyloc,2023.2.2,60.069953740292995,
,,,,,,,,,481.9457517020055,31,blank-1.jpg,,KN,1,vpnl,2023-11-15_21h08.53.037,longbabyloc,2023.2.2,60.069953740292995,
,,,,,,,,,482.44643448499846,31,blank-2.jpg,,KN,1,vpnl,2023-11-15_21h08.53.037,longbabyloc,2023.2.2,60.069953740292995,
,,,,,,,,,482.94647535000695,31,blank-3.jpg,,KN,1,vpnl,2023-11-15_21h08.53.037,longbabyloc,2023.2.2,60.069953740292995,
,,,,,,,,,483.446249302011,31,blank-4.jpg,,KN,1,vpnl,2023-11-15_21h08.53.037,longbabyloc,2023.2.2,60.069953740292995,
,,,,,,,,,483.9458078260068,31,blank-5.jpg,,KN,1,vpnl,2023-11-15_21h08.53.037,longbabyloc,2023.2.2,60.069953740292995,
,,,,,,,,,484.4462196280074,31,blank-6.jpg,,KN,1,vpnl,2023-11-15_21h08.53.037,longbabyloc,2023.2.2,60.069953740292995,
,,,,,,,,,484.94641520000005,31,blank-7.jpg,,KN,1,vpnl,2023-11-15_21h08.53.037,longbabyloc,2023.2.2,60.069953740292995,
,,,,,,,,,485.44607999600703,31,blank-8.jpg,,KN,1,vpnl,2023-11-15_21h08.53.037,longbabyloc,2023.2.2,60.069953740292995,
,,,,,,,,,485.9456509950105,32,hands-1.jpg,,KN,1,vpnl,2023-11-15_21h08.53.037,longbabyloc,2023.2.2,60.069953740292995,
,,,,,,,,,486.4462317770085,32,hands-2.jpg,,KN,1,vpnl,2023-11-15_21h08.53.037,longbabyloc,2023.2.2,60.069953740292995,
,,,,,,,,,486.94637994300865,32,hands-3.jpg,,KN,1,vpnl,2023-11-15_21h08.53.037,longbabyloc,2023.2.2,60.069953740292995,
,,,,,,,,,487.4460907340108,32,hands-4.jpg,,KN,1,vpnl,2023-11-15_21h08.53.037,longbabyloc,2023.2.2,60.069953740292995,
,,,,,,,,,487.94575441601046,32,hands-5.jpg,,KN,1,vpnl,2023-11-15_21h08.53.037,longbabyloc,2023.2.2,60.069953740292995,
,,,,,,,,,488.4461405559996,32,hands-6.jpg,,KN,1,vpnl,2023-11-15_21h08.53.037,longbabyloc,2023.2.2,60.069953740292995,
,,,,,,,,,488.94643127200834,32,hands-7.jpg,,KN,1,vpnl,2023-11-15_21h08.53.037,longbabyloc,2023.2.2,60.069953740292995,
,,,,,,,,,489.4461175480101,32,hands-8.jpg,,KN,1,vpnl,2023-11-15_21h08.53.037,longbabyloc,2023.2.2,60.069953740292995,
,,,,,,,,,489.9456116770016,33,blank-9.jpg,,KN,1,vpnl,2023-11-15_21h08.53.037,longbabyloc,2023.2.2,60.069953740292995,
,,,,,,,,,490.44614377300604,33,blank-10.jpg,,KN,1,vpnl,2023-11-15_21h08.53.037,longbabyloc,2023.2.2,60.069953740292995,
,,,,,,,,,490.9463401670073,33,blank-11.jpg,,KN,1,vpnl,2023-11-15_21h08.53.037,longbabyloc,2023.2.2,60.069953740292995,
,,,,,,,,,491.445975242008,33,blank-12.jpg,,KN,1,vpnl,2023-11-15_21h08.53.037,longbabyloc,2023.2.2,60.069953740292995,
,,,,,,,,,491.9456091650063,33,blank-13.jpg,,KN,1,vpnl,2023-11-15_21h08.53.037,longbabyloc,2023.2.2,60.069953740292995,
,,,,,,,,,492.44613556300465,33,blank-14.jpg,,KN,1,vpnl,2023-11-15_21h08.53.037,longbabyloc,2023.2.2,60.069953740292995,
,,,,,,,,,492.9462301379972,33,blank-15.jpg,,KN,1,vpnl,2023-11-15_21h08.53.037,longbabyloc,2023.2.2,60.069953740292995,
,,,,,,,,,493.4460278980114,33,blank-16.jpg,,KN,1,vpnl,2023-11-15_21h08.53.037,longbabyloc,2023.2.2,60.069953740292995,
,,,,,,,,,493.94568209200224,34,faces-1.jpg,,KN,1,vpnl,2023-11-15_21h08.53.037,longbabyloc,2023.2.2,60.069953740292995,
,,,,,,,,,494.4461528190004,34,faces-2.jpg,,KN,1,vpnl,2023-11-15_21h08.53.037,longbabyloc,2023.2.2,60.069953740292995,
,,,,,,,,,494.9463038370013,34,faces-3.jpg,,KN,1,vpnl,2023-11-15_21h08.53.037,longbabyloc,2023.2.2,60.069953740292995,
,,,,,,,,,495.445887948008,34,faces-4.jpg,,KN,1,vpnl,2023-11-15_21h08.53.037,longbabyloc,2023.2.2,60.069953740292995,
,,,,,,,,,495.9454654209985,34,faces-5.jpg,,KN,1,vpnl,2023-11-15_21h08.53.037,longbabyloc,2023.2.2,60.069953740292995,
,,,,,,,,,496.4460264320078,34,faces-6.jpg,,KN,1,vpnl,2023-11-15_21h08.53.037,longbabyloc,2023.2.2,60.069953740292995,
,,,,,,,,,496.94609230800415,34,faces-7.jpg,,KN,1,vpnl,2023-11-15_21h08.53.037,longbabyloc,2023.2.2,60.069953740292995,
,,,,,,,,,497.4460150119994,34,faces-8.jpg,,KN,1,vpnl,2023-11-15_21h08.53.037,longbabyloc,2023.2.2,60.069953740292995,
,,,,,,,,,497.94546219900076,35,scenes-1.jpg,,KN,1,vpnl,2023-11-15_21h08.53.037,longbabyloc,2023.2.2,60.069953740292995,
,,,,,,,,,498.44562752899947,35,scenes-2.jpg,,KN,1,vpnl,2023-11-15_21h08.53.037,longbabyloc,2023.2.2,60.069953740292995,
,,,,,,,,,498.9462017640035,35,scenes-3.jpg,,KN,1,vpnl,2023-11-15_21h08.53.037,longbabyloc,2023.2.2,60.069953740292995,
,,,,,,,,,499.44589516700944,35,scenes-4.jpg,,KN,1,vpnl,2023-11-15_21h08.53.037,longbabyloc,2023.2.2,60.069953740292995,
,,,,,,,,,499.94532835700375,35,scenes-5.jpg,,KN,1,vpnl,2023-11-15_21h08.53.037,longbabyloc,2023.2.2,60.069953740292995,
,,,,,,,,,500.44593835900014,35,scenes-6.jpg,,KN,1,vpnl,2023-11-15_21h08.53.037,longbabyloc,2023.2.2,60.069953740292995,
,,,,,,,,,500.94614551000996,35,scenes-7.jpg,,KN,1,vpnl,2023-11-15_21h08.53.037,longbabyloc,2023.2.2,60.069953740292995,
,,,,,,,,,501.44584259700787,35,scenes-8.jpg,,KN,1,vpnl,2023-11-15_21h08.53.037,longbabyloc,2023.2.2,60.069953740292995,
,,,,,,,,,501.9453861420043,36,cars-1.jpg,,KN,1,vpnl,2023-11-15_21h08.53.037,longbabyloc,2023.2.2,60.069953740292995,
,,,,,,,,,502.4459588989994,36,cars-2.jpg,,KN,1,vpnl,2023-11-15_21h08.53.037,longbabyloc,2023.2.2,60.069953740292995,
,,,,,,,,,502.9461998640036,36,cars-3.jpg,,KN,1,vpnl,2023-11-15_21h08.53.037,longbabyloc,2023.2.2,60.069953740292995,
,,,,,,,,,503.4459001840005,36,cars-4.jpg,,KN,1,vpnl,2023-11-15_21h08.53.037,longbabyloc,2023.2.2,60.069953740292995,
,,,,,,,,,503.94554212799994,36,cars-5.jpg,,KN,1,vpnl,2023-11-15_21h08.53.037,longbabyloc,2023.2.2,60.069953740292995,
,,,,,,,,,504.446050508006,36,cars-6.jpg,,KN,1,vpnl,2023-11-15_21h08.53.037,longbabyloc,2023.2.2,60.069953740292995,
,,,,,,,,,504.94606259399734,36,cars-7.jpg,,KN,1,vpnl,2023-11-15_21h08.53.037,longbabyloc,2023.2.2,60.069953740292995,
,,,,,,,,,505.4458505509974,36,cars-8.jpg,,KN,1,vpnl,2023-11-15_21h08.53.037,longbabyloc,2023.2.2,60.069953740292995,
,,,,,,,,,505.9453548559977,37,blank-17.jpg,,KN,1,vpnl,2023-11-15_21h08.53.037,longbabyloc,2023.2.2,60.069953740292995,
,,,,,,,,,506.445835593011,37,blank-18.jpg,,KN,1,vpnl,2023-11-15_21h08.53.037,longbabyloc,2023.2.2,60.069953740292995,
,,,,,,,,,506.946142175002,37,blank-19.jpg,,KN,1,vpnl,2023-11-15_21h08.53.037,longbabyloc,2023.2.2,60.069953740292995,
,,,,,,,,,507.4457077570114,37,blank-20.jpg,,KN,1,vpnl,2023-11-15_21h08.53.037,longbabyloc,2023.2.2,60.069953740292995,
,,,,,,,,,507.9454777339997,37,blank-21.jpg,,KN,1,vpnl,2023-11-15_21h08.53.037,longbabyloc,2023.2.2,60.069953740292995,
,,,,,,,,,508.44579568300105,37,blank-22.jpg,,KN,1,vpnl,2023-11-15_21h08.53.037,longbabyloc,2023.2.2,60.069953740292995,
,,,,,,,,,508.946096382002,37,blank-23.jpg,,KN,1,vpnl,2023-11-15_21h08.53.037,longbabyloc,2023.2.2,60.069953740292995,
,,,,,,,,,509.44570229100646,37,blank-24.jpg,,KN,1,vpnl,2023-11-15_21h08.53.037,longbabyloc,2023.2.2,60.069953740292995,
,,,,,,,,,509.94524196400016,38,faces-9.jpg,,KN,1,vpnl,2023-11-15_21h08.53.037,longbabyloc,2023.2.2,60.069953740292995,
,,,,,,,,,510.44566104099795,38,faces-10.jpg,,KN,1,vpnl,2023-11-15_21h08.53.037,longbabyloc,2023.2.2,60.069953740292995,
,,,,,,,,,510.9459205840103,38,faces-11.jpg,,KN,1,vpnl,2023-11-15_21h08.53.037,longbabyloc,2023.2.2,60.069953740292995,
,,,,,,,,,511.44553705400904,38,faces-12.jpg,,KN,1,vpnl,2023-11-15_21h08.53.037,longbabyloc,2023.2.2,60.069953740292995,
,,,,,,,,,511.9451402620034,38,faces-13.jpg,,KN,1,vpnl,2023-11-15_21h08.53.037,longbabyloc,2023.2.2,60.069953740292995,
,,,,,,,,,512.4458109789994,38,faces-14.jpg,,KN,1,vpnl,2023-11-15_21h08.53.037,longbabyloc,2023.2.2,60.069953740292995,
,,,,,,,,,512.9459772870032,38,faces-15.jpg,,KN,1,vpnl,2023-11-15_21h08.53.037,longbabyloc,2023.2.2,60.069953740292995,
,,,,,,,,,513.445694146998,38,faces-16.jpg,,KN,1,vpnl,2023-11-15_21h08.53.037,longbabyloc,2023.2.2,60.069953740292995,
,,,,,,,,,513.945172495005,39,scenes-9.jpg,,KN,1,vpnl,2023-11-15_21h08.53.037,longbabyloc,2023.2.2,60.069953740292995,
,,,,,,,,,514.4456061180099,39,scenes-10.jpg,,KN,1,vpnl,2023-11-15_21h08.53.037,longbabyloc,2023.2.2,60.069953740292995,
,,,,,,,,,514.9463186299981,39,scenes-11.jpg,,KN,1,vpnl,2023-11-15_21h08.53.037,longbabyloc,2023.2.2,60.069953740292995,
,,,,,,,,,515.4453494580084,39,scenes-12.jpg,,KN,1,vpnl,2023-11-15_21h08.53.037,longbabyloc,2023.2.2,60.069953740292995,
,,,,,,,,,515.9451511540101,39,scenes-13.jpg,,KN,1,vpnl,2023-11-15_21h08.53.037,longbabyloc,2023.2.2,60.069953740292995,
,,,,,,,,,516.4455247290025,39,scenes-14.jpg,,KN,1,vpnl,2023-11-15_21h08.53.037,longbabyloc,2023.2.2,60.069953740292995,
,,,,,,,,,516.9460513610102,39,scenes-15.jpg,,KN,1,vpnl,2023-11-15_21h08.53.037,longbabyloc,2023.2.2,60.069953740292995,
,,,,,,,,,517.4454478980042,39,scenes-16.jpg,,KN,1,vpnl,2023-11-15_21h08.53.037,longbabyloc,2023.2.2,60.069953740292995,
,,,,,,,,,517.9451009350014,40,hands-9.jpg,,KN,1,vpnl,2023-11-15_21h08.53.037,longbabyloc,2023.2.2,60.069953740292995,
,,,,,,,,,518.4455104259978,40,hands-10.jpg,,KN,1,vpnl,2023-11-15_21h08.53.037,longbabyloc,2023.2.2,60.069953740292995,
,,,,,,,,,518.9458288540045,40,hands-11.jpg,,KN,1,vpnl,2023-11-15_21h08.53.037,longbabyloc,2023.2.2,60.069953740292995,
,,,,,,,,,519.445443730001,40,hands-12.jpg,,KN,1,vpnl,2023-11-15_21h08.53.037,longbabyloc,2023.2.2,60.069953740292995,
,,,,,,,,,519.945231553007,40,hands-13.jpg,,KN,1,vpnl,2023-11-15_21h08.53.037,longbabyloc,2023.2.2,60.069953740292995,
,,,,,,,,,520.4452413130057,40,hands-14.jpg,,KN,1,vpnl,2023-11-15_21h08.53.037,longbabyloc,2023.2.2,60.069953740292995,
,,,,,,,,,520.9458167150005,40,hands-15.jpg,,KN,1,vpnl,2023-11-15_21h08.53.037,longbabyloc,2023.2.2,60.069953740292995,
,,,,,,,,,521.4454306380067,40,hands-16.jpg,,KN,1,vpnl,2023-11-15_21h08.53.037,longbabyloc,2023.2.2,60.069953740292995,
,,,,,,,,,521.9450837740005,41,cars-9.jpg,,KN,1,vpnl,2023-11-15_21h08.53.037,longbabyloc,2023.2.2,60.069953740292995,
,,,,,,,,,522.4453075040074,41,cars-10.jpg,,KN,1,vpnl,2023-11-15_21h08.53.037,longbabyloc,2023.2.2,60.069953740292995,
,,,,,,,,,522.9455192570022,41,cars-11.jpg,,KN,1,vpnl,2023-11-15_21h08.53.037,longbabyloc,2023.2.2,60.069953740292995,
,,,,,,,,,523.4454004840081,41,cars-12.jpg,,KN,1,vpnl,2023-11-15_21h08.53.037,longbabyloc,2023.2.2,60.069953740292995,
,,,,,,,,,523.9450354080036,41,cars-13.jpg,,KN,1,vpnl,2023-11-15_21h08.53.037,longbabyloc,2023.2.2,60.069953740292995,
,,,,,,,,,524.4453074930061,41,cars-14.jpg,,KN,1,vpnl,2023-11-15_21h08.53.037,longbabyloc,2023.2.2,60.069953740292995,
,,,,,,,,,524.9458842379972,41,cars-15.jpg,,KN,1,vpnl,2023-11-15_21h08.53.037,longbabyloc,2023.2.2,60.069953740292995,
,,,,,,,,,525.4452814810065,41,cars-16.jpg,,KN,1,vpnl,2023-11-15_21h08.53.037,longbabyloc,2023.2.2,60.069953740292995,
,,,,,,,,,525.9449946870009,42,blank-25.jpg,,KN,1,vpnl,2023-11-15_21h08.53.037,longbabyloc,2023.2.2,60.069953740292995,
,,,,,,,,,526.4452537970064,42,blank-26.jpg,,KN,1,vpnl,2023-11-15_21h08.53.037,longbabyloc,2023.2.2,60.069953740292995,
,,,,,,,,,526.9457073500089,42,blank-27.jpg,,KN,1,vpnl,2023-11-15_21h08.53.037,longbabyloc,2023.2.2,60.069953740292995,
,,,,,,,,,527.445307026006,42,blank-28.jpg,,KN,1,vpnl,2023-11-15_21h08.53.037,longbabyloc,2023.2.2,60.069953740292995,
,,,,,,,,,527.9449942570063,42,blank-29.jpg,,KN,1,vpnl,2023-11-15_21h08.53.037,longbabyloc,2023.2.2,60.069953740292995,
,,,,,,,,,528.4452809560025,42,blank-30.jpg,,KN,1,vpnl,2023-11-15_21h08.53.037,longbabyloc,2023.2.2,60.069953740292995,
,,,,,,,,,528.9456172240025,42,blank-31.jpg,,KN,1,vpnl,2023-11-15_21h08.53.037,longbabyloc,2023.2.2,60.069953740292995,
,,,,,,,,,529.4453429010027,42,blank-32.jpg,,KN,1,vpnl,2023-11-15_21h08.53.037,longbabyloc,2023.2.2,60.069953740292995,
,,,,,,,,,529.9449123910017,43,hands-17.jpg,,KN,1,vpnl,2023-11-15_21h08.53.037,longbabyloc,2023.2.2,60.069953740292995,
,,,,,,,,,530.4452384920005,43,hands-18.jpg,,KN,1,vpnl,2023-11-15_21h08.53.037,longbabyloc,2023.2.2,60.069953740292995,
,,,,,,,,,530.945824098002,43,hands-19.jpg,,KN,1,vpnl,2023-11-15_21h08.53.037,longbabyloc,2023.2.2,60.069953740292995,
,,,,,,,,,531.4455418120051,43,hands-20.jpg,,KN,1,vpnl,2023-11-15_21h08.53.037,longbabyloc,2023.2.2,60.069953740292995,
,,,,,,,,,531.9449065980007,43,hands-21.jpg,,KN,1,vpnl,2023-11-15_21h08.53.037,longbabyloc,2023.2.2,60.069953740292995,
,,,,,,,,,532.4453144490108,43,hands-22.jpg,,KN,1,vpnl,2023-11-15_21h08.53.037,longbabyloc,2023.2.2,60.069953740292995,
,,,,,,,,,532.9454968650098,43,hands-23.jpg,,KN,1,vpnl,2023-11-15_21h08.53.037,longbabyloc,2023.2.2,60.069953740292995,
,,,,,,,,,533.4453393040021,43,hands-24.jpg,,KN,1,vpnl,2023-11-15_21h08.53.037,longbabyloc,2023.2.2,60.069953740292995,
,,,,,,,,,533.944809010005,44,scenes-17.jpg,,KN,1,vpnl,2023-11-15_21h08.53.037,longbabyloc,2023.2.2,60.069953740292995,
,,,,,,,,,534.4452202289976,44,scenes-18.jpg,,KN,1,vpnl,2023-11-15_21h08.53.037,longbabyloc,2023.2.2,60.069953740292995,
,,,,,,,,,534.9454356120114,44,scenes-19.jpg,,KN,1,vpnl,2023-11-15_21h08.53.037,longbabyloc,2023.2.2,60.069953740292995,
,,,,,,,,,535.4451399120007,44,scenes-20.jpg,,KN,1,vpnl,2023-11-15_21h08.53.037,longbabyloc,2023.2.2,60.069953740292995,
,,,,,,,,,535.9446757120022,44,scenes-21.jpg,,KN,1,vpnl,2023-11-15_21h08.53.037,longbabyloc,2023.2.2,60.069953740292995,
,,,,,,,,,536.4450263090112,44,scenes-22.jpg,,KN,1,vpnl,2023-11-15_21h08.53.037,longbabyloc,2023.2.2,60.069953740292995,
,,,,,,,,,536.9453729980014,44,scenes-23.jpg,,KN,1,vpnl,2023-11-15_21h08.53.037,longbabyloc,2023.2.2,60.069953740292995,
,,,,,,,,,537.4453557700035,44,scenes-24.jpg,,KN,1,vpnl,2023-11-15_21h08.53.037,longbabyloc,2023.2.2,60.069953740292995,
,,,,,,,,,537.9447671600064,45,faces-17.jpg,,KN,1,vpnl,2023-11-15_21h08.53.037,longbabyloc,2023.2.2,60.069953740292995,
,,,,,,,,,538.4450068230071,45,faces-18.jpg,,KN,1,vpnl,2023-11-15_21h08.53.037,longbabyloc,2023.2.2,60.069953740292995,
,,,,,,,,,538.9454180270113,45,faces-19.jpg,,KN,1,vpnl,2023-11-15_21h08.53.037,longbabyloc,2023.2.2,60.069953740292995,
,,,,,,,,,539.4450730590033,45,faces-20.jpg,,KN,1,vpnl,2023-11-15_21h08.53.037,longbabyloc,2023.2.2,60.069953740292995,
,,,,,,,,,539.9448716300103,45,faces-21.jpg,,KN,1,vpnl,2023-11-15_21h08.53.037,longbabyloc,2023.2.2,60.069953740292995,
,,,,,,,,,540.4450023350073,45,faces-22.jpg,,KN,1,vpnl,2023-11-15_21h08.53.037,longbabyloc,2023.2.2,60.069953740292995,
,,,,,,,,,540.9453482920071,45,faces-23.jpg,,KN,1,vpnl,2023-11-15_21h08.53.037,longbabyloc,2023.2.2,60.069953740292995,
,,,,,,,,,541.4449633640033,45,faces-24.jpg,,KN,1,vpnl,2023-11-15_21h08.53.037,longbabyloc,2023.2.2,60.069953740292995,
,,,,,,,,,541.9446979930071,46,cars-17.jpg,,KN,1,vpnl,2023-11-15_21h08.53.037,longbabyloc,2023.2.2,60.069953740292995,
,,,,,,,,,542.4450461460074,46,cars-18.jpg,,KN,1,vpnl,2023-11-15_21h08.53.037,longbabyloc,2023.2.2,60.069953740292995,
,,,,,,,,,542.9452587450069,46,cars-19.jpg,,KN,1,vpnl,2023-11-15_21h08.53.037,longbabyloc,2023.2.2,60.069953740292995,
,,,,,,,,,543.4449853960105,46,cars-20.jpg,,KN,1,vpnl,2023-11-15_21h08.53.037,longbabyloc,2023.2.2,60.069953740292995,
,,,,,,,,,543.9446702660061,46,cars-21.jpg,,KN,1,vpnl,2023-11-15_21h08.53.037,longbabyloc,2023.2.2,60.069953740292995,
,,,,,,,,,544.4451442970021,46,cars-22.jpg,,KN,1,vpnl,2023-11-15_21h08.53.037,longbabyloc,2023.2.2,60.069953740292995,
,,,,,,,,,544.9454704939999,46,cars-23.jpg,,KN,1,vpnl,2023-11-15_21h08.53.037,longbabyloc,2023.2.2,60.069953740292995,
,,,,,,,,,545.4449941659987,46,cars-24.jpg,,KN,1,vpnl,2023-11-15_21h08.53.037,longbabyloc,2023.2.2,60.069953740292995,
,,,,,,,,,545.9446881890035,47,faces-25.jpg,,KN,1,vpnl,2023-11-15_21h08.53.037,longbabyloc,2023.2.2,60.069953740292995,
,,,,,,,,,546.4450308990054,47,faces-26.jpg,,KN,1,vpnl,2023-11-15_21h08.53.037,longbabyloc,2023.2.2,60.069953740292995,
,,,,,,,,,546.9452411329985,47,faces-27.jpg,,KN,1,vpnl,2023-11-15_21h08.53.037,longbabyloc,2023.2.2,60.069953740292995,
,,,,,,,,,547.4449118190096,47,faces-28.jpg,,KN,1,vpnl,2023-11-15_21h08.53.037,longbabyloc,2023.2.2,60.069953740292995,
,,,,,,,,,547.9445198769972,47,faces-29.jpg,,KN,1,vpnl,2023-11-15_21h08.53.037,longbabyloc,2023.2.2,60.069953740292995,
,,,,,,,,,548.4451014210063,47,faces-30.jpg,,KN,1,vpnl,2023-11-15_21h08.53.037,longbabyloc,2023.2.2,60.069953740292995,
,,,,,,,,,548.9452776149992,47,faces-31.jpg,,KN,1,vpnl,2023-11-15_21h08.53.037,longbabyloc,2023.2.2,60.069953740292995,
,,,,,,,,,549.4449328220071,47,faces-32.jpg,,KN,1,vpnl,2023-11-15_21h08.53.037,longbabyloc,2023.2.2,60.069953740292995,
,,,,,,,,,549.9446543509985,48,hands-25.jpg,,KN,1,vpnl,2023-11-15_21h08.53.037,longbabyloc,2023.2.2,60.069953740292995,
,,,,,,,,,550.4450535080105,48,hands-26.jpg,,KN,1,vpnl,2023-11-15_21h08.53.037,longbabyloc,2023.2.2,60.069953740292995,
,,,,,,,,,550.9453981289989,48,hands-27.jpg,,KN,1,vpnl,2023-11-15_21h08.53.037,longbabyloc,2023.2.2,60.069953740292995,
,,,,,,,,,551.4448293599999,48,hands-28.jpg,,KN,1,vpnl,2023-11-15_21h08.53.037,longbabyloc,2023.2.2,60.069953740292995,
,,,,,,,,,551.9445302550012,48,hands-29.jpg,,KN,1,vpnl,2023-11-15_21h08.53.037,longbabyloc,2023.2.2,60.069953740292995,
,,,,,,,,,552.4447640670114,48,hands-30.jpg,,KN,1,vpnl,2023-11-15_21h08.53.037,longbabyloc,2023.2.2,60.069953740292995,
,,,,,,,,,552.9454367400031,48,hands-31.jpg,,KN,1,vpnl,2023-11-15_21h08.53.037,longbabyloc,2023.2.2,60.069953740292995,
,,,,,,,,,553.4449170540029,48,hands-32.jpg,,KN,1,vpnl,2023-11-15_21h08.53.037,longbabyloc,2023.2.2,60.069953740292995,
,,,,,,,,,553.9445499980066,49,cars-25.jpg,,KN,1,vpnl,2023-11-15_21h08.53.037,longbabyloc,2023.2.2,60.069953740292995,
,,,,,,,,,554.4447702769976,49,cars-26.jpg,,KN,1,vpnl,2023-11-15_21h08.53.037,longbabyloc,2023.2.2,60.069953740292995,
,,,,,,,,,554.945365282998,49,cars-27.jpg,,KN,1,vpnl,2023-11-15_21h08.53.037,longbabyloc,2023.2.2,60.069953740292995,
,,,,,,,,,555.4449756789982,49,cars-28.jpg,,KN,1,vpnl,2023-11-15_21h08.53.037,longbabyloc,2023.2.2,60.069953740292995,
,,,,,,,,,555.9445793570048,49,cars-29.jpg,,KN,1,vpnl,2023-11-15_21h08.53.037,longbabyloc,2023.2.2,60.069953740292995,
,,,,,,,,,556.4448435410013,49,cars-30.jpg,,KN,1,vpnl,2023-11-15_21h08.53.037,longbabyloc,2023.2.2,60.069953740292995,
,,,,,,,,,556.9449793850072,49,cars-31.jpg,,KN,1,vpnl,2023-11-15_21h08.53.037,longbabyloc,2023.2.2,60.069953740292995,
,,,,,,,,,557.4449087920075,49,cars-32.jpg,,KN,1,vpnl,2023-11-15_21h08.53.037,longbabyloc,2023.2.2,60.069953740292995,
,,,,,,,,,557.9444923340052,50,blank-33.jpg,,KN,1,vpnl,2023-11-15_21h08.53.037,longbabyloc,2023.2.2,60.069953740292995,
,,,,,,,,,558.4445942340099,50,blank-34.jpg,,KN,1,vpnl,2023-11-15_21h08.53.037,longbabyloc,2023.2.2,60.069953740292995,
,,,,,,,,,558.9450336029986,50,blank-35.jpg,,KN,1,vpnl,2023-11-15_21h08.53.037,longbabyloc,2023.2.2,60.069953740292995,
,,,,,,,,,559.4447258770088,50,blank-36.jpg,,KN,1,vpnl,2023-11-15_21h08.53.037,longbabyloc,2023.2.2,60.069953740292995,
,,,,,,,,,559.9443580210063,50,blank-37.jpg,,KN,1,vpnl,2023-11-15_21h08.53.037,longbabyloc,2023.2.2,60.069953740292995,
,,,,,,,,,560.4448508350033,50,blank-38.jpg,,KN,1,vpnl,2023-11-15_21h08.53.037,longbabyloc,2023.2.2,60.069953740292995,
,,,,,,,,,560.9450603590085,50,blank-39.jpg,,KN,1,vpnl,2023-11-15_21h08.53.037,longbabyloc,2023.2.2,60.069953740292995,
,,,,,,,,,561.4445501849987,50,blank-40.jpg,,KN,1,vpnl,2023-11-15_21h08.53.037,longbabyloc,2023.2.2,60.069953740292995,
,,,,,,,,,561.944313482003,51,scenes-25.jpg,,KN,1,vpnl,2023-11-15_21h08.53.037,longbabyloc,2023.2.2,60.069953740292995,
,,,,,,,,,562.4445765679993,51,scenes-26.jpg,,KN,1,vpnl,2023-11-15_21h08.53.037,longbabyloc,2023.2.2,60.069953740292995,
,,,,,,,,,562.9450178900006,51,scenes-27.jpg,,KN,1,vpnl,2023-11-15_21h08.53.037,longbabyloc,2023.2.2,60.069953740292995,
,,,,,,,,,563.4445566750073,51,scenes-28.jpg,,KN,1,vpnl,2023-11-15_21h08.53.037,longbabyloc,2023.2.2,60.069953740292995,
,,,,,,,,,563.9444567820028,51,scenes-29.jpg,,KN,1,vpnl,2023-11-15_21h08.53.037,longbabyloc,2023.2.2,60.069953740292995,
,,,,,,,,,564.444674377999,51,scenes-30.jpg,,KN,1,vpnl,2023-11-15_21h08.53.037,longbabyloc,2023.2.2,60.069953740292995,
,,,,,,,,,564.9449022170011,51,scenes-31.jpg,,KN,1,vpnl,2023-11-15_21h08.53.037,longbabyloc,2023.2.2,60.069953740292995,
,,,,,,,,,565.4446763000014,51,scenes-32.jpg,,KN,1,vpnl,2023-11-15_21h08.53.037,longbabyloc,2023.2.2,60.069953740292995,
,,,,,,,,,565.944146505004,52,blank-41.jpg,,KN,1,vpnl,2023-11-15_21h08.53.037,longbabyloc,2023.2.2,60.069953740292995,
,,,,,,,,,566.444699315005,52,blank-42.jpg,,KN,1,vpnl,2023-11-15_21h08.53.037,longbabyloc,2023.2.2,60.069953740292995,
,,,,,,,,,566.9449902970082,52,blank-43.jpg,,KN,1,vpnl,2023-11-15_21h08.53.037,longbabyloc,2023.2.2,60.069953740292995,
,,,,,,,,,567.4445140349999,52,blank-44.jpg,,KN,1,vpnl,2023-11-15_21h08.53.037,longbabyloc,2023.2.2,60.069953740292995,
,,,,,,,,,567.9441230509983,52,blank-45.jpg,,KN,1,vpnl,2023-11-15_21h08.53.037,longbabyloc,2023.2.2,60.069953740292995,
,,,,,,,,,568.4447788990074,52,blank-46.jpg,,KN,1,vpnl,2023-11-15_21h08.53.037,longbabyloc,2023.2.2,60.069953740292995,
,,,,,,,,,568.9449134790048,52,blank-47.jpg,,KN,1,vpnl,2023-11-15_21h08.53.037,longbabyloc,2023.2.2,60.069953740292995,
,,,,,,,,,569.4445736100024,52,blank-48.jpg,,KN,1,vpnl,2023-11-15_21h08.53.037,longbabyloc,2023.2.2,60.069953740292995,
,,,,,,,,,569.9442979070009,53,scenes-33.jpg,,KN,1,vpnl,2023-11-15_21h08.53.037,longbabyloc,2023.2.2,60.069953740292995,
,,,,,,,,,570.4443318780104,53,scenes-34.jpg,,KN,1,vpnl,2023-11-15_21h08.53.037,longbabyloc,2023.2.2,60.069953740292995,
,,,,,,,,,570.9450332550041,53,scenes-35.jpg,,KN,1,vpnl,2023-11-15_21h08.53.037,longbabyloc,2023.2.2,60.069953740292995,
,,,,,,,,,571.4445001900021,53,scenes-36.jpg,,KN,1,vpnl,2023-11-15_21h08.53.037,longbabyloc,2023.2.2,60.069953740292995,
,,,,,,,,,571.9440515640017,53,scenes-37.jpg,,KN,1,vpnl,2023-11-15_21h08.53.037,longbabyloc,2023.2.2,60.069953740292995,
,,,,,,,,,572.4443105360115,53,scenes-38.jpg,,KN,1,vpnl,2023-11-15_21h08.53.037,longbabyloc,2023.2.2,60.069953740292995,
,,,,,,,,,572.9450051239983,53,scenes-39.jpg,,KN,1,vpnl,2023-11-15_21h08.53.037,longbabyloc,2023.2.2,60.069953740292995,
,,,,,,,,,573.4444983209978,53,scenes-40.jpg,,KN,1,vpnl,2023-11-15_21h08.53.037,longbabyloc,2023.2.2,60.069953740292995,
,,,,,,,,,573.9440697480022,54,faces-33.jpg,,KN,1,vpnl,2023-11-15_21h08.53.037,longbabyloc,2023.2.2,60.069953740292995,
,,,,,,,,,574.4445021020074,54,faces-34.jpg,,KN,1,vpnl,2023-11-15_21h08.53.037,longbabyloc,2023.2.2,60.069953740292995,
,,,,,,,,,574.9446542280057,54,faces-35.jpg,,KN,1,vpnl,2023-11-15_21h08.53.037,longbabyloc,2023.2.2,60.069953740292995,
,,,,,,,,,575.4444849930005,54,faces-36.jpg,,KN,1,vpnl,2023-11-15_21h08.53.037,longbabyloc,2023.2.2,60.069953740292995,
,,,,,,,,,575.9439556770085,54,faces-37.jpg,,KN,1,vpnl,2023-11-15_21h08.53.037,longbabyloc,2023.2.2,60.069953740292995,
,,,,,,,,,576.444320131006,54,faces-38.jpg,,KN,1,vpnl,2023-11-15_21h08.53.037,longbabyloc,2023.2.2,60.069953740292995,
,,,,,,,,,576.9446312369982,54,faces-39.jpg,,KN,1,vpnl,2023-11-15_21h08.53.037,longbabyloc,2023.2.2,60.069953740292995,
,,,,,,,,,577.4448619760078,54,faces-40.jpg,,KN,1,vpnl,2023-11-15_21h08.53.037,longbabyloc,2023.2.2,60.069953740292995,
,,,,,,,,,577.9439290610026,55,hands-33.jpg,,KN,1,vpnl,2023-11-15_21h08.53.037,longbabyloc,2023.2.2,60.069953740292995,
,,,,,,,,,578.4442985770002,55,hands-34.jpg,,KN,1,vpnl,2023-11-15_21h08.53.037,longbabyloc,2023.2.2,60.069953740292995,
,,,,,,,,,578.9447903830005,55,hands-35.jpg,,KN,1,vpnl,2023-11-15_21h08.53.037,longbabyloc,2023.2.2,60.069953740292995,
,,,,,,,,,579.4442947750067,55,hands-36.jpg,,KN,1,vpnl,2023-11-15_21h08.53.037,longbabyloc,2023.2.2,60.069953740292995,
,,,,,,,,,579.9441326719971,55,hands-37.jpg,,KN,1,vpnl,2023-11-15_21h08.53.037,longbabyloc,2023.2.2,60.069953740292995,
,,,,,,,,,580.4444756980083,55,hands-38.jpg,,KN,1,vpnl,2023-11-15_21h08.53.037,longbabyloc,2023.2.2,60.069953740292995,
,,,,,,,,,580.9445798140077,55,hands-39.jpg,,KN,1,vpnl,2023-11-15_21h08.53.037,longbabyloc,2023.2.2,60.069953740292995,
,,,,,,,,,581.4442698970088,55,hands-40.jpg,,KN,1,vpnl,2023-11-15_21h08.53.037,longbabyloc,2023.2.2,60.069953740292995,
,,,,,,,,,581.943976228009,56,cars-33.jpg,,KN,1,vpnl,2023-11-15_21h08.53.037,longbabyloc,2023.2.2,60.069953740292995,
,,,,,,,,,582.4444364680094,56,cars-34.jpg,,KN,1,vpnl,2023-11-15_21h08.53.037,longbabyloc,2023.2.2,60.069953740292995,
,,,,,,,,,582.9447747610102,56,cars-35.jpg,,KN,1,vpnl,2023-11-15_21h08.53.037,longbabyloc,2023.2.2,60.069953740292995,
,,,,,,,,,583.4444567960018,56,cars-36.jpg,,KN,1,vpnl,2023-11-15_21h08.53.037,longbabyloc,2023.2.2,60.069953740292995,
,,,,,,,,,583.9439916210104,56,cars-37.jpg,,KN,1,vpnl,2023-11-15_21h08.53.037,longbabyloc,2023.2.2,60.069953740292995,
,,,,,,,,,584.4444569400075,56,cars-38.jpg,,KN,1,vpnl,2023-11-15_21h08.53.037,longbabyloc,2023.2.2,60.069953740292995,
,,,,,,,,,584.9446600150113,56,cars-39.jpg,,KN,1,vpnl,2023-11-15_21h08.53.037,longbabyloc,2023.2.2,60.069953740292995,
,,,,,,,,,585.4441650840017,56,cars-40.jpg,,KN,1,vpnl,2023-11-15_21h08.53.037,longbabyloc,2023.2.2,60.069953740292995,
,,,,,,,,,585.9437787530042,57,blank-49.jpg,,KN,1,vpnl,2023-11-15_21h08.53.037,longbabyloc,2023.2.2,60.069953740292995,
,,,,,,,,,586.4439526799979,57,blank-50.jpg,,KN,1,vpnl,2023-11-15_21h08.53.037,longbabyloc,2023.2.2,60.069953740292995,
,,,,,,,,,586.9446929940023,57,blank-51.jpg,,KN,1,vpnl,2023-11-15_21h08.53.037,longbabyloc,2023.2.2,60.069953740292995,
,,,,,,,,,587.4478418320068,57,blank-52.jpg,,KN,1,vpnl,2023-11-15_21h08.53.037,longbabyloc,2023.2.2,60.069953740292995,
,,,,,,,,,587.9437614979979,57,blank-53.jpg,,KN,1,vpnl,2023-11-15_21h08.53.037,longbabyloc,2023.2.2,60.069953740292995,
,,,,,,,,,588.4440803559992,57,blank-54.jpg,,KN,1,vpnl,2023-11-15_21h08.53.037,longbabyloc,2023.2.2,60.069953740292995,
,,,,,,,,,588.9447285640053,57,blank-55.jpg,,KN,1,vpnl,2023-11-15_21h08.53.037,longbabyloc,2023.2.2,60.069953740292995,
,,,,,,,,,589.4442390120093,57,blank-56.jpg,,KN,1,vpnl,2023-11-15_21h08.53.037,longbabyloc,2023.2.2,60.069953740292995,
,,,,,,,,,589.9439892590017,58,faces-41.jpg,,KN,1,vpnl,2023-11-15_21h08.53.037,longbabyloc,2023.2.2,60.069953740292995,
,,,,,,,,,590.4441887330031,58,faces-42.jpg,,KN,1,vpnl,2023-11-15_21h08.53.037,longbabyloc,2023.2.2,60.069953740292995,
,,,,,,,,,590.9442324289994,58,faces-43.jpg,,KN,1,vpnl,2023-11-15_21h08.53.037,longbabyloc,2023.2.2,60.069953740292995,
,,,,,,,,,591.4441980130068,58,faces-44.jpg,,KN,1,vpnl,2023-11-15_21h08.53.037,longbabyloc,2023.2.2,60.069953740292995,
,,,,,,,,,591.9436164970102,58,faces-45.jpg,,KN,1,vpnl,2023-11-15_21h08.53.037,longbabyloc,2023.2.2,60.069953740292995,
,,,,,,,,,592.4441870040027,58,faces-46.jpg,,KN,1,vpnl,2023-11-15_21h08.53.037,longbabyloc,2023.2.2,60.069953740292995,
,,,,,,,,,592.9443733720109,58,faces-47.jpg,,KN,1,vpnl,2023-11-15_21h08.53.037,longbabyloc,2023.2.2,60.069953740292995,
,,,,,,,,,593.4442629149999,58,faces-48.jpg,,KN,1,vpnl,2023-11-15_21h08.53.037,longbabyloc,2023.2.2,60.069953740292995,
,,,,,,,,,593.9437688150065,59,scenes-41.jpg,,KN,1,vpnl,2023-11-15_21h08.53.037,longbabyloc,2023.2.2,60.069953740292995,
,,,,,,,,,594.4440595620108,59,scenes-42.jpg,,KN,1,vpnl,2023-11-15_21h08.53.037,longbabyloc,2023.2.2,60.069953740292995,
,,,,,,,,,594.9443868800008,59,scenes-43.jpg,,KN,1,vpnl,2023-11-15_21h08.53.037,longbabyloc,2023.2.2,60.069953740292995,
,,,,,,,,,595.4439855890087,59,scenes-44.jpg,,KN,1,vpnl,2023-11-15_21h08.53.037,longbabyloc,2023.2.2,60.069953740292995,
,,,,,,,,,595.9437264860026,59,scenes-45.jpg,,KN,1,vpnl,2023-11-15_21h08.53.037,longbabyloc,2023.2.2,60.069953740292995,
,,,,,,,,,596.4441533530044,59,scenes-46.jpg,,KN,1,vpnl,2023-11-15_21h08.53.037,longbabyloc,2023.2.2,60.069953740292995,
,,,,,,,,,596.9445527979988,59,scenes-47.jpg,,KN,1,vpnl,2023-11-15_21h08.53.037,longbabyloc,2023.2.2,60.069953740292995,
,,,,,,,,,597.4441243220062,59,scenes-48.jpg,,KN,1,vpnl,2023-11-15_21h08.53.037,longbabyloc,2023.2.2,60.069953740292995,
,,,,,,,,,597.9436029280041,60,hands-41.jpg,,KN,1,vpnl,2023-11-15_21h08.53.037,longbabyloc,2023.2.2,60.069953740292995,
,,,,,,,,,598.4441537500097,60,hands-42.jpg,,KN,1,vpnl,2023-11-15_21h08.53.037,longbabyloc,2023.2.2,60.069953740292995,
,,,,,,,,,598.9444390690041,60,hands-43.jpg,,KN,1,vpnl,2023-11-15_21h08.53.037,longbabyloc,2023.2.2,60.069953740292995,
,,,,,,,,,599.4440060260094,60,hands-44.jpg,,KN,1,vpnl,2023-11-15_21h08.53.037,longbabyloc,2023.2.2,60.069953740292995,
,,,,,,,,,599.943661643003,60,hands-45.jpg,,KN,1,vpnl,2023-11-15_21h08.53.037,longbabyloc,2023.2.2,60.069953740292995,
,,,,,,,,,600.4437223730056,60,hands-46.jpg,,KN,1,vpnl,2023-11-15_21h08.53.037,longbabyloc,2023.2.2,60.069953740292995,
,,,,,,,,,600.944348244011,60,hands-47.jpg,,KN,1,vpnl,2023-11-15_21h08.53.037,longbabyloc,2023.2.2,60.069953740292995,
,,,,,,,,,601.4439886440086,60,hands-48.jpg,,KN,1,vpnl,2023-11-15_21h08.53.037,longbabyloc,2023.2.2,60.069953740292995,
,,,,,,,,,601.943554782003,61,cars-41.jpg,,KN,1,vpnl,2023-11-15_21h08.53.037,longbabyloc,2023.2.2,60.069953740292995,
,,,,,,,,,602.4439043680031,61,cars-42.jpg,,KN,1,vpnl,2023-11-15_21h08.53.037,longbabyloc,2023.2.2,60.069953740292995,
,,,,,,,,,602.9442686490074,61,cars-43.jpg,,KN,1,vpnl,2023-11-15_21h08.53.037,longbabyloc,2023.2.2,60.069953740292995,
,,,,,,,,,603.4441134560038,61,cars-44.jpg,,KN,1,vpnl,2023-11-15_21h08.53.037,longbabyloc,2023.2.2,60.069953740292995,
,,,,,,,,,603.9435190320073,61,cars-45.jpg,,KN,1,vpnl,2023-11-15_21h08.53.037,longbabyloc,2023.2.2,60.069953740292995,
,,,,,,,,,604.4439400650008,61,cars-46.jpg,,KN,1,vpnl,2023-11-15_21h08.53.037,longbabyloc,2023.2.2,60.069953740292995,
,,,,,,,,,604.9441164780001,61,cars-47.jpg,,KN,1,vpnl,2023-11-15_21h08.53.037,longbabyloc,2023.2.2,60.069953740292995,
,,,,,,,,,605.4439725070115,61,cars-48.jpg,,KN,1,vpnl,2023-11-15_21h08.53.037,longbabyloc,2023.2.2,60.069953740292995,
,,,,,,,,,605.9436134660064,62,blank-57.jpg,,KN,1,vpnl,2023-11-15_21h08.53.037,longbabyloc,2023.2.2,60.069953740292995,
,,,,,,,,,606.443887322006,62,blank-58.jpg,,KN,1,vpnl,2023-11-15_21h08.53.037,longbabyloc,2023.2.2,60.069953740292995,
,,,,,,,,,606.9442715040059,62,blank-59.jpg,,KN,1,vpnl,2023-11-15_21h08.53.037,longbabyloc,2023.2.2,60.069953740292995,
,,,,,,,,,607.4437939250056,62,blank-60.jpg,,KN,1,vpnl,2023-11-15_21h08.53.037,longbabyloc,2023.2.2,60.069953740292995,
,,,,,,,,,607.9435319410113,62,blank-61.jpg,,KN,1,vpnl,2023-11-15_21h08.53.037,longbabyloc,2023.2.2,60.069953740292995,
,,,,,,,,,608.4438908970042,62,blank-62.jpg,,KN,1,vpnl,2023-11-15_21h08.53.037,longbabyloc,2023.2.2,60.069953740292995,
,,,,,,,,,608.9445349610032,62,blank-63.jpg,,KN,1,vpnl,2023-11-15_21h08.53.037,longbabyloc,2023.2.2,60.069953740292995,
,,,,,,,,,609.4438408650021,62,blank-64.jpg,,KN,1,vpnl,2023-11-15_21h08.53.037,longbabyloc,2023.2.2,60.069953740292995,
