thisRow.t,notes,waiting_for_trigger_text.started,trigger.started,trigger.keys,trigger.rt,countdown.started,trial.stopped,stimuli.started,condition,stim_name,participant,run,user,date,expName,psychopyVersion,frameRate,
,,716.534721983,716.534721983,t,40.395848769985605,,,,,,KN,1,vpnl,2023-11-15_20h52.24.668,midbabyloc,2023.2.2,60.52384134797849,
,,,,,,756.9598209840042,46.43489068398776,763.0002502490097,1,blank.mp4,KN,1,vpnl,2023-11-15_20h52.24.668,midbabyloc,2023.2.2,60.52384134797849,
,,,,,,,,767.1364352070086,2,car8_1.mp4,KN,1,vpnl,2023-11-15_20h52.24.668,midbabyloc,2023.2.2,60.52384134797849,
,,,,,,,,771.1193519710068,3,blank.mp4,KN,1,vpnl,2023-11-15_20h52.24.668,midbabyloc,2023.2.2,60.52384134797849,
,,,,,,,,775.1312167430006,4,JC_2.mp4,KN,1,vpnl,2023-11-15_20h52.24.668,midbabyloc,2023.2.2,60.52384134797849,
,,,,,,,,779.1221044039994,5,mountainstreamblue.mp4,KN,1,vpnl,2023-11-15_20h52.24.668,midbabyloc,2023.2.2,60.52384134797849,
,,,,,,,,783.1704256420053,6,KP_hands_4.mp4,KN,1,vpnl,2023-11-15_20h52.24.668,midbabyloc,2023.2.2,60.52384134797849,
,,,,,,,,787.1343722560123,7,blank.mp4,KN,1,vpnl,2023-11-15_20h52.24.668,midbabyloc,2023.2.2,60.52384134797849,
,,,,,,,,791.1379133860028,8,sunsetclouds.mp4,KN,1,vpnl,2023-11-15_20h52.24.668,midbabyloc,2023.2.2,60.52384134797849,
,,,,,,,,795.127371524999,9,BP_1.mp4,KN,1,vpnl,2023-11-15_20h52.24.668,midbabyloc,2023.2.2,60.52384134797849,
,,,,,,,,799.1474742450082,10,racecar_1.mp4,KN,1,vpnl,2023-11-15_20h52.24.668,midbabyloc,2023.2.2,60.52384134797849,
,,,,,,,,803.1451135850075,11,AX_hands_2.mp4,KN,1,vpnl,2023-11-15_20h52.24.668,midbabyloc,2023.2.2,60.52384134797849,
,,,,,,,,807.1222897240077,12,blank.mp4,KN,1,vpnl,2023-11-15_20h52.24.668,midbabyloc,2023.2.2,60.52384134797849,
,,,,,,,,811.1441695100075,13,SE_hands_2.mp4,KN,1,vpnl,2023-11-15_20h52.24.668,midbabyloc,2023.2.2,60.52384134797849,
,,,,,,,,815.1533106010029,14,car5_1.mp4,KN,1,vpnl,2023-11-15_20h52.24.668,midbabyloc,2023.2.2,60.52384134797849,
,,,,,,,,819.147427710006,15,dam.mp4,KN,1,vpnl,2023-11-15_20h52.24.668,midbabyloc,2023.2.2,60.52384134797849,
,,,,,,,,823.1350936500094,16,IK_3.mp4,KN,1,vpnl,2023-11-15_20h52.24.668,midbabyloc,2023.2.2,60.52384134797849,
,,,,,,,,827.1184290630044,17,DO_hands_3.mp4,KN,1,vpnl,2023-11-15_20h52.24.668,midbabyloc,2023.2.2,60.52384134797849,
,,,,,,,,831.1187070340093,18,blank.mp4,KN,1,vpnl,2023-11-15_20h52.24.668,midbabyloc,2023.2.2,60.52384134797849,
,,,,,,,,835.1563673440105,19,dumptruck8_1.mp4,KN,1,vpnl,2023-11-15_20h52.24.668,midbabyloc,2023.2.2,60.52384134797849,
,,,,,,,,839.1417117980018,20,KW_3.mp4,KN,1,vpnl,2023-11-15_20h52.24.668,midbabyloc,2023.2.2,60.52384134797849,
,,,,,,,,843.155181360009,21,powerlinewater.mp4,KN,1,vpnl,2023-11-15_20h52.24.668,midbabyloc,2023.2.2,60.52384134797849,
,,,,,,,,847.1369836290105,22,SS_1.mp4,KN,1,vpnl,2023-11-15_20h52.24.668,midbabyloc,2023.2.2,60.52384134797849,
,,,,,,,,851.1189878910081,23,dumptruck3_1.mp4,KN,1,vpnl,2023-11-15_20h52.24.668,midbabyloc,2023.2.2,60.52384134797849,
,,,,,,,,855.1470582330076,24,blank.mp4,KN,1,vpnl,2023-11-15_20h52.24.668,midbabyloc,2023.2.2,60.52384134797849,
,,,,,,,,859.1548500510107,25,beachwithdriftwood.mp4,KN,1,vpnl,2023-11-15_20h52.24.668,midbabyloc,2023.2.2,60.52384134797849,
,,,,,,,,863.1298138580023,26,JO_hands_4.mp4,KN,1,vpnl,2023-11-15_20h52.24.668,midbabyloc,2023.2.2,60.52384134797849,
,,,,,,,,867.1302064019983,27,blank.mp4,KN,1,vpnl,2023-11-15_20h52.24.668,midbabyloc,2023.2.2,60.52384134797849,
,,,,,,,,871.1135733690026,28,JC_hands_4.mp4,KN,1,vpnl,2023-11-15_20h52.24.668,midbabyloc,2023.2.2,60.52384134797849,
,,,,,,,,875.1265297270002,29,car2_1.mp4,KN,1,vpnl,2023-11-15_20h52.24.668,midbabyloc,2023.2.2,60.52384134797849,
,,,,,,,,879.1477375960094,30,calmbeach.mp4,KN,1,vpnl,2023-11-15_20h52.24.668,midbabyloc,2023.2.2,60.52384134797849,
,,,,,,,,883.1560191669996,31,DO_1.mp4,KN,1,vpnl,2023-11-15_20h52.24.668,midbabyloc,2023.2.2,60.52384134797849,
,,,,,,,,887.1602136920119,32,dumptruck5_1.mp4,KN,1,vpnl,2023-11-15_20h52.24.668,midbabyloc,2023.2.2,60.52384134797849,
,,,,,,,,891.1195296670048,33,snowyfield.mp4,KN,1,vpnl,2023-11-15_20h52.24.668,midbabyloc,2023.2.2,60.52384134797849,
,,,,,,,,895.1338097570115,34,KP_3.mp4,KN,1,vpnl,2023-11-15_20h52.24.668,midbabyloc,2023.2.2,60.52384134797849,
,,,,,,,,899.135364709,35,blank.mp4,KN,1,vpnl,2023-11-15_20h52.24.668,midbabyloc,2023.2.2,60.52384134797849,
,,,,,,,,903.1148134560062,36,BS_hands_1.mp4,KN,1,vpnl,2023-11-15_20h52.24.668,midbabyloc,2023.2.2,60.52384134797849,
,,,,,,,,907.1352239990083,37,forestwaterfall.mp4,KN,1,vpnl,2023-11-15_20h52.24.668,midbabyloc,2023.2.2,60.52384134797849,
,,,,,,,,911.1180446310027,38,SE_1.mp4,KN,1,vpnl,2023-11-15_20h52.24.668,midbabyloc,2023.2.2,60.52384134797849,
,,,,,,,,915.1427907040052,39,blank.mp4,KN,1,vpnl,2023-11-15_20h52.24.668,midbabyloc,2023.2.2,60.52384134797849,
,,,,,,,,919.131901257002,40,dumptruck1_1.mp4,KN,1,vpnl,2023-11-15_20h52.24.668,midbabyloc,2023.2.2,60.52384134797849,
,,,,,,,,923.1242370539985,41,IK_hands_1.mp4,KN,1,vpnl,2023-11-15_20h52.24.668,midbabyloc,2023.2.2,60.52384134797849,
,,,,,,,,927.1446903110045,42,blank.mp4,KN,1,vpnl,2023-11-15_20h52.24.668,midbabyloc,2023.2.2,60.52384134797849,
