thisRow.t,notes,waiting_for_trigger_text.started,trigger.started,trigger.keys,trigger.rt,countdown.started,trial.stopped,stimuli.started,condition,stim_name,participant,run,user,date,expName,psychopyVersion,frameRate,
,,346.8984484360117,346.8984484360117,t,9.632288027991308,,,,,,AC,1,vpnl,2023-11-16_21h08.22.391,longbabyloc,2023.2.2,59.961477626392146,
,,,,,,356.5575980130088,15.671755956005654,362.57732160900196,1,blank-97.jpg,AC,1,vpnl,2023-11-16_21h08.22.391,longbabyloc,2023.2.2,59.961477626392146,
,,,,,,,,363.0679273350106,1,blank-98.jpg,AC,1,vpnl,2023-11-16_21h08.22.391,longbabyloc,2023.2.2,59.961477626392146,
,,,,,,,,363.56932703300845,1,blank-99.jpg,AC,1,vpnl,2023-11-16_21h08.22.391,longbabyloc,2023.2.2,59.961477626392146,
,,,,,,,,364.0680655440083,1,blank-100.jpg,AC,1,vpnl,2023-11-16_21h08.22.391,longbabyloc,2023.2.2,59.961477626392146,
,,,,,,,,364.575070537001,1,blank-101.jpg,AC,1,vpnl,2023-11-16_21h08.22.391,longbabyloc,2023.2.2,59.961477626392146,
,,,,,,,,365.06480385700706,1,blank-102.jpg,AC,1,vpnl,2023-11-16_21h08.22.391,longbabyloc,2023.2.2,59.961477626392146,
,,,,,,,,365.5651625830069,1,blank-103.jpg,AC,1,vpnl,2023-11-16_21h08.22.391,longbabyloc,2023.2.2,59.961477626392146,
,,,,,,,,366.06476870800543,1,blank-104.jpg,AC,1,vpnl,2023-11-16_21h08.22.391,longbabyloc,2023.2.2,59.961477626392146,
,,,,,,,,366.5664146890049,2,faces-97.jpg,AC,1,vpnl,2023-11-16_21h08.22.391,longbabyloc,2023.2.2,59.961477626392146,
,,,,,,,,367.0645121859998,2,faces-98.jpg,AC,1,vpnl,2023-11-16_21h08.22.391,longbabyloc,2023.2.2,59.961477626392146,
,,,,,,,,367.56466757100134,2,faces-99.jpg,AC,1,vpnl,2023-11-16_21h08.22.391,longbabyloc,2023.2.2,59.961477626392146,
,,,,,,,,368.0645290680113,2,faces-100.jpg,AC,1,vpnl,2023-11-16_21h08.22.391,longbabyloc,2023.2.2,59.961477626392146,
,,,,,,,,368.5661909770133,2,faces-101.jpg,AC,1,vpnl,2023-11-16_21h08.22.391,longbabyloc,2023.2.2,59.961477626392146,
,,,,,,,,369.0643160430045,2,faces-102.jpg,AC,1,vpnl,2023-11-16_21h08.22.391,longbabyloc,2023.2.2,59.961477626392146,
,,,,,,,,369.56493389800016,2,faces-103.jpg,AC,1,vpnl,2023-11-16_21h08.22.391,longbabyloc,2023.2.2,59.961477626392146,
,,,,,,,,370.06447232700884,2,faces-104.jpg,AC,1,vpnl,2023-11-16_21h08.22.391,longbabyloc,2023.2.2,59.961477626392146,
,,,,,,,,370.5658778250072,3,cars-97.jpg,AC,1,vpnl,2023-11-16_21h08.22.391,longbabyloc,2023.2.2,59.961477626392146,
,,,,,,,,371.0675122660032,3,cars-98.jpg,AC,1,vpnl,2023-11-16_21h08.22.391,longbabyloc,2023.2.2,59.961477626392146,
,,,,,,,,371.564609914014,3,cars-99.jpg,AC,1,vpnl,2023-11-16_21h08.22.391,longbabyloc,2023.2.2,59.961477626392146,
,,,,,,,,372.0667760350043,3,cars-100.jpg,AC,1,vpnl,2023-11-16_21h08.22.391,longbabyloc,2023.2.2,59.961477626392146,
,,,,,,,,372.5657101780089,3,cars-101.jpg,AC,1,vpnl,2023-11-16_21h08.22.391,longbabyloc,2023.2.2,59.961477626392146,
,,,,,,,,373.06438960401283,3,cars-102.jpg,AC,1,vpnl,2023-11-16_21h08.22.391,longbabyloc,2023.2.2,59.961477626392146,
,,,,,,,,373.5647334670066,3,cars-103.jpg,AC,1,vpnl,2023-11-16_21h08.22.391,longbabyloc,2023.2.2,59.961477626392146,
,,,,,,,,374.0642275420105,3,cars-104.jpg,AC,1,vpnl,2023-11-16_21h08.22.391,longbabyloc,2023.2.2,59.961477626392146,
,,,,,,,,374.5661110080109,4,scenes-97.jpg,AC,1,vpnl,2023-11-16_21h08.22.391,longbabyloc,2023.2.2,59.961477626392146,
,,,,,,,,375.0642936100048,4,scenes-98.jpg,AC,1,vpnl,2023-11-16_21h08.22.391,longbabyloc,2023.2.2,59.961477626392146,
,,,,,,,,375.5645620070136,4,scenes-99.jpg,AC,1,vpnl,2023-11-16_21h08.22.391,longbabyloc,2023.2.2,59.961477626392146,
,,,,,,,,376.06437332800124,4,scenes-100.jpg,AC,1,vpnl,2023-11-16_21h08.22.391,longbabyloc,2023.2.2,59.961477626392146,
,,,,,,,,376.5659280920081,4,scenes-101.jpg,AC,1,vpnl,2023-11-16_21h08.22.391,longbabyloc,2023.2.2,59.961477626392146,
,,,,,,,,377.06411886600836,4,scenes-102.jpg,AC,1,vpnl,2023-11-16_21h08.22.391,longbabyloc,2023.2.2,59.961477626392146,
,,,,,,,,377.5506399850128,4,scenes-103.jpg,AC,1,vpnl,2023-11-16_21h08.22.391,longbabyloc,2023.2.2,59.961477626392146,
,,,,,,,,378.06408845800615,4,scenes-104.jpg,AC,1,vpnl,2023-11-16_21h08.22.391,longbabyloc,2023.2.2,59.961477626392146,
,,,,,,,,378.56707565400575,5,blank-105.jpg,AC,1,vpnl,2023-11-16_21h08.22.391,longbabyloc,2023.2.2,59.961477626392146,
,,,,,,,,379.06393590100924,5,blank-106.jpg,AC,1,vpnl,2023-11-16_21h08.22.391,longbabyloc,2023.2.2,59.961477626392146,
,,,,,,,,379.564608065004,5,blank-107.jpg,AC,1,vpnl,2023-11-16_21h08.22.391,longbabyloc,2023.2.2,59.961477626392146,
,,,,,,,,380.06411204801407,5,blank-108.jpg,AC,1,vpnl,2023-11-16_21h08.22.391,longbabyloc,2023.2.2,59.961477626392146,
,,,,,,,,380.5655658350006,5,blank-109.jpg,AC,1,vpnl,2023-11-16_21h08.22.391,longbabyloc,2023.2.2,59.961477626392146,
,,,,,,,,381.0641484900116,5,blank-110.jpg,AC,1,vpnl,2023-11-16_21h08.22.391,longbabyloc,2023.2.2,59.961477626392146,
,,,,,,,,381.56437625300896,5,blank-111.jpg,AC,1,vpnl,2023-11-16_21h08.22.391,longbabyloc,2023.2.2,59.961477626392146,
,,,,,,,,382.06405399000505,5,blank-112.jpg,AC,1,vpnl,2023-11-16_21h08.22.391,longbabyloc,2023.2.2,59.961477626392146,
,,,,,,,,382.56576419400517,6,hands-97.jpg,AC,1,vpnl,2023-11-16_21h08.22.391,longbabyloc,2023.2.2,59.961477626392146,
,,,,,,,,383.0639594200038,6,hands-98.jpg,AC,1,vpnl,2023-11-16_21h08.22.391,longbabyloc,2023.2.2,59.961477626392146,
,,,,,,,,383.56426456201007,6,hands-99.jpg,AC,1,vpnl,2023-11-16_21h08.22.391,longbabyloc,2023.2.2,59.961477626392146,
,,,,,,,,384.0638180040114,6,hands-100.jpg,AC,1,vpnl,2023-11-16_21h08.22.391,longbabyloc,2023.2.2,59.961477626392146,
,,,,,,,,384.5657933090115,6,hands-101.jpg,AC,1,vpnl,2023-11-16_21h08.22.391,longbabyloc,2023.2.2,59.961477626392146,
,,,,,,,,385.0640063450119,6,hands-102.jpg,AC,1,vpnl,2023-11-16_21h08.22.391,longbabyloc,2023.2.2,59.961477626392146,
,,,,,,,,385.56422785000177,6,hands-103.jpg,AC,1,vpnl,2023-11-16_21h08.22.391,longbabyloc,2023.2.2,59.961477626392146,
,,,,,,,,386.0642035790079,6,hands-104.jpg,AC,1,vpnl,2023-11-16_21h08.22.391,longbabyloc,2023.2.2,59.961477626392146,
,,,,,,,,386.5658793130133,7,cars-105.jpg,AC,1,vpnl,2023-11-16_21h08.22.391,longbabyloc,2023.2.2,59.961477626392146,
,,,,,,,,387.06390179700975,7,cars-106.jpg,AC,1,vpnl,2023-11-16_21h08.22.391,longbabyloc,2023.2.2,59.961477626392146,
,,,,,,,,387.56417192000663,7,cars-107.jpg,AC,1,vpnl,2023-11-16_21h08.22.391,longbabyloc,2023.2.2,59.961477626392146,
,,,,,,,,388.06397438500426,7,cars-108.jpg,AC,1,vpnl,2023-11-16_21h08.22.391,longbabyloc,2023.2.2,59.961477626392146,
,,,,,,,,388.56526843601023,7,cars-109.jpg,AC,1,vpnl,2023-11-16_21h08.22.391,longbabyloc,2023.2.2,59.961477626392146,
,,,,,,,,389.0637372580095,7,cars-110.jpg,AC,1,vpnl,2023-11-16_21h08.22.391,longbabyloc,2023.2.2,59.961477626392146,
,,,,,,,,389.56419217100483,7,cars-111.jpg,AC,1,vpnl,2023-11-16_21h08.22.391,longbabyloc,2023.2.2,59.961477626392146,
,,,,,,,,390.0642126840103,7,cars-112.jpg,AC,1,vpnl,2023-11-16_21h08.22.391,longbabyloc,2023.2.2,59.961477626392146,
,,,,,,,,390.56510959401203,8,blank-113.jpg,AC,1,vpnl,2023-11-16_21h08.22.391,longbabyloc,2023.2.2,59.961477626392146,
,,,,,,,,391.0638897910103,8,blank-114.jpg,AC,1,vpnl,2023-11-16_21h08.22.391,longbabyloc,2023.2.2,59.961477626392146,
,,,,,,,,391.56409254900063,8,blank-115.jpg,AC,1,vpnl,2023-11-16_21h08.22.391,longbabyloc,2023.2.2,59.961477626392146,
,,,,,,,,392.0637332910119,8,blank-116.jpg,AC,1,vpnl,2023-11-16_21h08.22.391,longbabyloc,2023.2.2,59.961477626392146,
,,,,,,,,392.56553481200535,8,blank-117.jpg,AC,1,vpnl,2023-11-16_21h08.22.391,longbabyloc,2023.2.2,59.961477626392146,
,,,,,,,,393.06377341100597,8,blank-118.jpg,AC,1,vpnl,2023-11-16_21h08.22.391,longbabyloc,2023.2.2,59.961477626392146,
,,,,,,,,393.56436383200344,8,blank-119.jpg,AC,1,vpnl,2023-11-16_21h08.22.391,longbabyloc,2023.2.2,59.961477626392146,
,,,,,,,,394.06404028901306,8,blank-120.jpg,AC,1,vpnl,2023-11-16_21h08.22.391,longbabyloc,2023.2.2,59.961477626392146,
,,,,,,,,394.565719671009,9,faces-105.jpg,AC,1,vpnl,2023-11-16_21h08.22.391,longbabyloc,2023.2.2,59.961477626392146,
,,,,,,,,395.0637348360033,9,faces-106.jpg,AC,1,vpnl,2023-11-16_21h08.22.391,longbabyloc,2023.2.2,59.961477626392146,
,,,,,,,,395.56399660200987,9,faces-107.jpg,AC,1,vpnl,2023-11-16_21h08.22.391,longbabyloc,2023.2.2,59.961477626392146,
,,,,,,,,396.0637401520071,9,faces-108.jpg,AC,1,vpnl,2023-11-16_21h08.22.391,longbabyloc,2023.2.2,59.961477626392146,
,,,,,,,,396.56553754500055,9,faces-109.jpg,AC,1,vpnl,2023-11-16_21h08.22.391,longbabyloc,2023.2.2,59.961477626392146,
,,,,,,,,397.06365982000716,9,faces-110.jpg,AC,1,vpnl,2023-11-16_21h08.22.391,longbabyloc,2023.2.2,59.961477626392146,
,,,,,,,,397.5667461539997,9,faces-111.jpg,AC,1,vpnl,2023-11-16_21h08.22.391,longbabyloc,2023.2.2,59.961477626392146,
,,,,,,,,398.063826032012,9,faces-112.jpg,AC,1,vpnl,2023-11-16_21h08.22.391,longbabyloc,2023.2.2,59.961477626392146,
,,,,,,,,398.56543942101416,10,hands-105.jpg,AC,1,vpnl,2023-11-16_21h08.22.391,longbabyloc,2023.2.2,59.961477626392146,
,,,,,,,,399.0637958130101,10,hands-106.jpg,AC,1,vpnl,2023-11-16_21h08.22.391,longbabyloc,2023.2.2,59.961477626392146,
,,,,,,,,399.5640671250003,10,hands-107.jpg,AC,1,vpnl,2023-11-16_21h08.22.391,longbabyloc,2023.2.2,59.961477626392146,
,,,,,,,,400.06391287301085,10,hands-108.jpg,AC,1,vpnl,2023-11-16_21h08.22.391,longbabyloc,2023.2.2,59.961477626392146,
,,,,,,,,400.5648914640042,10,hands-109.jpg,AC,1,vpnl,2023-11-16_21h08.22.391,longbabyloc,2023.2.2,59.961477626392146,
,,,,,,,,401.06393191700045,10,hands-110.jpg,AC,1,vpnl,2023-11-16_21h08.22.391,longbabyloc,2023.2.2,59.961477626392146,
,,,,,,,,401.5640237300104,10,hands-111.jpg,AC,1,vpnl,2023-11-16_21h08.22.391,longbabyloc,2023.2.2,59.961477626392146,
,,,,,,,,402.06366430300113,10,hands-112.jpg,AC,1,vpnl,2023-11-16_21h08.22.391,longbabyloc,2023.2.2,59.961477626392146,
,,,,,,,,402.5647876889998,11,scenes-105.jpg,AC,1,vpnl,2023-11-16_21h08.22.391,longbabyloc,2023.2.2,59.961477626392146,
,,,,,,,,403.06386836300953,11,scenes-106.jpg,AC,1,vpnl,2023-11-16_21h08.22.391,longbabyloc,2023.2.2,59.961477626392146,
,,,,,,,,403.56408836500486,11,scenes-107.jpg,AC,1,vpnl,2023-11-16_21h08.22.391,longbabyloc,2023.2.2,59.961477626392146,
,,,,,,,,404.0635087700066,11,scenes-108.jpg,AC,1,vpnl,2023-11-16_21h08.22.391,longbabyloc,2023.2.2,59.961477626392146,
,,,,,,,,404.5652891080099,11,scenes-109.jpg,AC,1,vpnl,2023-11-16_21h08.22.391,longbabyloc,2023.2.2,59.961477626392146,
,,,,,,,,405.0636176780099,11,scenes-110.jpg,AC,1,vpnl,2023-11-16_21h08.22.391,longbabyloc,2023.2.2,59.961477626392146,
,,,,,,,,405.5639548150066,11,scenes-111.jpg,AC,1,vpnl,2023-11-16_21h08.22.391,longbabyloc,2023.2.2,59.961477626392146,
,,,,,,,,406.06361420301255,11,scenes-112.jpg,AC,1,vpnl,2023-11-16_21h08.22.391,longbabyloc,2023.2.2,59.961477626392146,
,,,,,,,,406.56518802800565,12,blank-121.jpg,AC,1,vpnl,2023-11-16_21h08.22.391,longbabyloc,2023.2.2,59.961477626392146,
,,,,,,,,407.06357629800914,12,blank-122.jpg,AC,1,vpnl,2023-11-16_21h08.22.391,longbabyloc,2023.2.2,59.961477626392146,
,,,,,,,,407.56390049200854,12,blank-123.jpg,AC,1,vpnl,2023-11-16_21h08.22.391,longbabyloc,2023.2.2,59.961477626392146,
,,,,,,,,408.0636858420039,12,blank-124.jpg,AC,1,vpnl,2023-11-16_21h08.22.391,longbabyloc,2023.2.2,59.961477626392146,
,,,,,,,,408.5649828599999,12,blank-125.jpg,AC,1,vpnl,2023-11-16_21h08.22.391,longbabyloc,2023.2.2,59.961477626392146,
,,,,,,,,409.06366255000466,12,blank-126.jpg,AC,1,vpnl,2023-11-16_21h08.22.391,longbabyloc,2023.2.2,59.961477626392146,
,,,,,,,,409.5693434730056,12,blank-127.jpg,AC,1,vpnl,2023-11-16_21h08.22.391,longbabyloc,2023.2.2,59.961477626392146,
,,,,,,,,410.0636790490098,12,blank-128.jpg,AC,1,vpnl,2023-11-16_21h08.22.391,longbabyloc,2023.2.2,59.961477626392146,
,,,,,,,,410.56518855401373,13,scenes-113.jpg,AC,1,vpnl,2023-11-16_21h08.22.391,longbabyloc,2023.2.2,59.961477626392146,
,,,,,,,,411.0633885180141,13,scenes-114.jpg,AC,1,vpnl,2023-11-16_21h08.22.391,longbabyloc,2023.2.2,59.961477626392146,
,,,,,,,,411.5641351150116,13,scenes-115.jpg,AC,1,vpnl,2023-11-16_21h08.22.391,longbabyloc,2023.2.2,59.961477626392146,
,,,,,,,,412.06340879500203,13,scenes-116.jpg,AC,1,vpnl,2023-11-16_21h08.22.391,longbabyloc,2023.2.2,59.961477626392146,
,,,,,,,,412.5645589610067,13,scenes-117.jpg,AC,1,vpnl,2023-11-16_21h08.22.391,longbabyloc,2023.2.2,59.961477626392146,
,,,,,,,,413.06362001399975,13,scenes-118.jpg,AC,1,vpnl,2023-11-16_21h08.22.391,longbabyloc,2023.2.2,59.961477626392146,
,,,,,,,,413.56373945300584,13,scenes-119.jpg,AC,1,vpnl,2023-11-16_21h08.22.391,longbabyloc,2023.2.2,59.961477626392146,
,,,,,,,,414.06351519901364,13,scenes-120.jpg,AC,1,vpnl,2023-11-16_21h08.22.391,longbabyloc,2023.2.2,59.961477626392146,
,,,,,,,,414.5644306460017,14,faces-113.jpg,AC,1,vpnl,2023-11-16_21h08.22.391,longbabyloc,2023.2.2,59.961477626392146,
,,,,,,,,415.0634774850041,14,faces-114.jpg,AC,1,vpnl,2023-11-16_21h08.22.391,longbabyloc,2023.2.2,59.961477626392146,
,,,,,,,,415.5636105540034,14,faces-115.jpg,AC,1,vpnl,2023-11-16_21h08.22.391,longbabyloc,2023.2.2,59.961477626392146,
,,,,,,,,416.06343176501105,14,faces-116.jpg,AC,1,vpnl,2023-11-16_21h08.22.391,longbabyloc,2023.2.2,59.961477626392146,
,,,,,,,,416.5643832830101,14,faces-117.jpg,AC,1,vpnl,2023-11-16_21h08.22.391,longbabyloc,2023.2.2,59.961477626392146,
,,,,,,,,417.0633533729997,14,faces-118.jpg,AC,1,vpnl,2023-11-16_21h08.22.391,longbabyloc,2023.2.2,59.961477626392146,
,,,,,,,,417.56347807300335,14,faces-119.jpg,AC,1,vpnl,2023-11-16_21h08.22.391,longbabyloc,2023.2.2,59.961477626392146,
,,,,,,,,418.06312976901245,14,faces-120.jpg,AC,1,vpnl,2023-11-16_21h08.22.391,longbabyloc,2023.2.2,59.961477626392146,
,,,,,,,,418.5647407340002,15,hands-113.jpg,AC,1,vpnl,2023-11-16_21h08.22.391,longbabyloc,2023.2.2,59.961477626392146,
,,,,,,,,419.0632502840017,15,hands-114.jpg,AC,1,vpnl,2023-11-16_21h08.22.391,longbabyloc,2023.2.2,59.961477626392146,
,,,,,,,,419.5636143820011,15,hands-115.jpg,AC,1,vpnl,2023-11-16_21h08.22.391,longbabyloc,2023.2.2,59.961477626392146,
,,,,,,,,420.0631967320078,15,hands-116.jpg,AC,1,vpnl,2023-11-16_21h08.22.391,longbabyloc,2023.2.2,59.961477626392146,
,,,,,,,,420.5648401060025,15,hands-117.jpg,AC,1,vpnl,2023-11-16_21h08.22.391,longbabyloc,2023.2.2,59.961477626392146,
,,,,,,,,421.06351272101165,15,hands-118.jpg,AC,1,vpnl,2023-11-16_21h08.22.391,longbabyloc,2023.2.2,59.961477626392146,
,,,,,,,,421.56334273400716,15,hands-119.jpg,AC,1,vpnl,2023-11-16_21h08.22.391,longbabyloc,2023.2.2,59.961477626392146,
,,,,,,,,422.0635846880032,15,hands-120.jpg,AC,1,vpnl,2023-11-16_21h08.22.391,longbabyloc,2023.2.2,59.961477626392146,
,,,,,,,,422.56445968401385,16,cars-113.jpg,AC,1,vpnl,2023-11-16_21h08.22.391,longbabyloc,2023.2.2,59.961477626392146,
,,,,,,,,423.0630922510027,16,cars-114.jpg,AC,1,vpnl,2023-11-16_21h08.22.391,longbabyloc,2023.2.2,59.961477626392146,
,,,,,,,,423.5634392980137,16,cars-115.jpg,AC,1,vpnl,2023-11-16_21h08.22.391,longbabyloc,2023.2.2,59.961477626392146,
,,,,,,,,424.063237297014,16,cars-116.jpg,AC,1,vpnl,2023-11-16_21h08.22.391,longbabyloc,2023.2.2,59.961477626392146,
,,,,,,,,424.5647551160073,16,cars-117.jpg,AC,1,vpnl,2023-11-16_21h08.22.391,longbabyloc,2023.2.2,59.961477626392146,
,,,,,,,,425.0630724980001,16,cars-118.jpg,AC,1,vpnl,2023-11-16_21h08.22.391,longbabyloc,2023.2.2,59.961477626392146,
,,,,,,,,425.5634660420037,16,cars-119.jpg,AC,1,vpnl,2023-11-16_21h08.22.391,longbabyloc,2023.2.2,59.961477626392146,
,,,,,,,,426.0633172460075,16,cars-120.jpg,AC,1,vpnl,2023-11-16_21h08.22.391,longbabyloc,2023.2.2,59.961477626392146,
,,,,,,,,426.56413070100825,17,hands-121.jpg,AC,1,vpnl,2023-11-16_21h08.22.391,longbabyloc,2023.2.2,59.961477626392146,
,,,,,,,,427.0629800480092,17,hands-122.jpg,AC,1,vpnl,2023-11-16_21h08.22.391,longbabyloc,2023.2.2,59.961477626392146,
,,,,,,,,427.5635057560139,17,hands-123.jpg,AC,1,vpnl,2023-11-16_21h08.22.391,longbabyloc,2023.2.2,59.961477626392146,
,,,,,,,,428.0631495510024,17,hands-124.jpg,AC,1,vpnl,2023-11-16_21h08.22.391,longbabyloc,2023.2.2,59.961477626392146,
,,,,,,,,428.56403231900185,17,hands-125.jpg,AC,1,vpnl,2023-11-16_21h08.22.391,longbabyloc,2023.2.2,59.961477626392146,
,,,,,,,,429.0657374350121,17,hands-126.jpg,AC,1,vpnl,2023-11-16_21h08.22.391,longbabyloc,2023.2.2,59.961477626392146,
,,,,,,,,429.56329629301035,17,hands-127.jpg,AC,1,vpnl,2023-11-16_21h08.22.391,longbabyloc,2023.2.2,59.961477626392146,
,,,,,,,,430.06497504000436,17,hands-128.jpg,AC,1,vpnl,2023-11-16_21h08.22.391,longbabyloc,2023.2.2,59.961477626392146,
,,,,,,,,430.56381422901177,18,cars-121.jpg,AC,1,vpnl,2023-11-16_21h08.22.391,longbabyloc,2023.2.2,59.961477626392146,
,,,,,,,,431.0632533780008,18,cars-122.jpg,AC,1,vpnl,2023-11-16_21h08.22.391,longbabyloc,2023.2.2,59.961477626392146,
,,,,,,,,431.56321425401256,18,cars-123.jpg,AC,1,vpnl,2023-11-16_21h08.22.391,longbabyloc,2023.2.2,59.961477626392146,
,,,,,,,,432.0631119880127,18,cars-124.jpg,AC,1,vpnl,2023-11-16_21h08.22.391,longbabyloc,2023.2.2,59.961477626392146,
,,,,,,,,432.5638089730055,18,cars-125.jpg,AC,1,vpnl,2023-11-16_21h08.22.391,longbabyloc,2023.2.2,59.961477626392146,
,,,,,,,,433.0630967270117,18,cars-126.jpg,AC,1,vpnl,2023-11-16_21h08.22.391,longbabyloc,2023.2.2,59.961477626392146,
,,,,,,,,433.5635734240059,18,cars-127.jpg,AC,1,vpnl,2023-11-16_21h08.22.391,longbabyloc,2023.2.2,59.961477626392146,
,,,,,,,,434.0629320040025,18,cars-128.jpg,AC,1,vpnl,2023-11-16_21h08.22.391,longbabyloc,2023.2.2,59.961477626392146,
,,,,,,,,434.5641424790083,19,scenes-121.jpg,AC,1,vpnl,2023-11-16_21h08.22.391,longbabyloc,2023.2.2,59.961477626392146,
,,,,,,,,435.06314947700594,19,scenes-122.jpg,AC,1,vpnl,2023-11-16_21h08.22.391,longbabyloc,2023.2.2,59.961477626392146,
,,,,,,,,435.563267178004,19,scenes-123.jpg,AC,1,vpnl,2023-11-16_21h08.22.391,longbabyloc,2023.2.2,59.961477626392146,
,,,,,,,,436.0630186870112,19,scenes-124.jpg,AC,1,vpnl,2023-11-16_21h08.22.391,longbabyloc,2023.2.2,59.961477626392146,
,,,,,,,,436.56434845901094,19,scenes-125.jpg,AC,1,vpnl,2023-11-16_21h08.22.391,longbabyloc,2023.2.2,59.961477626392146,
,,,,,,,,437.0629345320049,19,scenes-126.jpg,AC,1,vpnl,2023-11-16_21h08.22.391,longbabyloc,2023.2.2,59.961477626392146,
,,,,,,,,437.5632886090025,19,scenes-127.jpg,AC,1,vpnl,2023-11-16_21h08.22.391,longbabyloc,2023.2.2,59.961477626392146,
,,,,,,,,438.062748575001,19,scenes-128.jpg,AC,1,vpnl,2023-11-16_21h08.22.391,longbabyloc,2023.2.2,59.961477626392146,
,,,,,,,,438.56420828601404,20,faces-121.jpg,AC,1,vpnl,2023-11-16_21h08.22.391,longbabyloc,2023.2.2,59.961477626392146,
,,,,,,,,439.06300806200306,20,faces-122.jpg,AC,1,vpnl,2023-11-16_21h08.22.391,longbabyloc,2023.2.2,59.961477626392146,
,,,,,,,,439.5631424910098,20,faces-123.jpg,AC,1,vpnl,2023-11-16_21h08.22.391,longbabyloc,2023.2.2,59.961477626392146,
,,,,,,,,440.0629058290069,20,faces-124.jpg,AC,1,vpnl,2023-11-16_21h08.22.391,longbabyloc,2023.2.2,59.961477626392146,
,,,,,,,,440.56402526701277,20,faces-125.jpg,AC,1,vpnl,2023-11-16_21h08.22.391,longbabyloc,2023.2.2,59.961477626392146,
,,,,,,,,441.06292772600136,20,faces-126.jpg,AC,1,vpnl,2023-11-16_21h08.22.391,longbabyloc,2023.2.2,59.961477626392146,
,,,,,,,,441.56308776600054,20,faces-127.jpg,AC,1,vpnl,2023-11-16_21h08.22.391,longbabyloc,2023.2.2,59.961477626392146,
,,,,,,,,442.0628876060073,20,faces-128.jpg,AC,1,vpnl,2023-11-16_21h08.22.391,longbabyloc,2023.2.2,59.961477626392146,
,,,,,,,,442.5638485990057,21,blank-129.jpg,AC,1,vpnl,2023-11-16_21h08.22.391,longbabyloc,2023.2.2,59.961477626392146,
,,,,,,,,443.0627664580097,21,blank-130.jpg,AC,1,vpnl,2023-11-16_21h08.22.391,longbabyloc,2023.2.2,59.961477626392146,
,,,,,,,,443.5630408210127,21,blank-131.jpg,AC,1,vpnl,2023-11-16_21h08.22.391,longbabyloc,2023.2.2,59.961477626392146,
,,,,,,,,444.06287853101094,21,blank-132.jpg,AC,1,vpnl,2023-11-16_21h08.22.391,longbabyloc,2023.2.2,59.961477626392146,
,,,,,,,,444.564322368009,21,blank-133.jpg,AC,1,vpnl,2023-11-16_21h08.22.391,longbabyloc,2023.2.2,59.961477626392146,
,,,,,,,,445.06286055500095,21,blank-134.jpg,AC,1,vpnl,2023-11-16_21h08.22.391,longbabyloc,2023.2.2,59.961477626392146,
,,,,,,,,445.56336847000057,21,blank-135.jpg,AC,1,vpnl,2023-11-16_21h08.22.391,longbabyloc,2023.2.2,59.961477626392146,
,,,,,,,,446.0628088270023,21,blank-136.jpg,AC,1,vpnl,2023-11-16_21h08.22.391,longbabyloc,2023.2.2,59.961477626392146,
,,,,,,,,446.5635320270085,22,hands-129.jpg,AC,1,vpnl,2023-11-16_21h08.22.391,longbabyloc,2023.2.2,59.961477626392146,
,,,,,,,,447.06270338401373,22,hands-130.jpg,AC,1,vpnl,2023-11-16_21h08.22.391,longbabyloc,2023.2.2,59.961477626392146,
,,,,,,,,447.56307014900085,22,hands-131.jpg,AC,1,vpnl,2023-11-16_21h08.22.391,longbabyloc,2023.2.2,59.961477626392146,
,,,,,,,,448.06271243501396,22,hands-132.jpg,AC,1,vpnl,2023-11-16_21h08.22.391,longbabyloc,2023.2.2,59.961477626392146,
,,,,,,,,448.5634113190026,22,hands-133.jpg,AC,1,vpnl,2023-11-16_21h08.22.391,longbabyloc,2023.2.2,59.961477626392146,
,,,,,,,,449.06272340600844,22,hands-134.jpg,AC,1,vpnl,2023-11-16_21h08.22.391,longbabyloc,2023.2.2,59.961477626392146,
,,,,,,,,449.56299879800645,22,hands-135.jpg,AC,1,vpnl,2023-11-16_21h08.22.391,longbabyloc,2023.2.2,59.961477626392146,
,,,,,,,,450.06272632400214,22,hands-136.jpg,AC,1,vpnl,2023-11-16_21h08.22.391,longbabyloc,2023.2.2,59.961477626392146,
,,,,,,,,450.5634048940119,23,blank-137.jpg,AC,1,vpnl,2023-11-16_21h08.22.391,longbabyloc,2023.2.2,59.961477626392146,
,,,,,,,,451.06264343700605,23,blank-138.jpg,AC,1,vpnl,2023-11-16_21h08.22.391,longbabyloc,2023.2.2,59.961477626392146,
,,,,,,,,451.5630420600064,23,blank-139.jpg,AC,1,vpnl,2023-11-16_21h08.22.391,longbabyloc,2023.2.2,59.961477626392146,
,,,,,,,,452.0629489580024,23,blank-140.jpg,AC,1,vpnl,2023-11-16_21h08.22.391,longbabyloc,2023.2.2,59.961477626392146,
,,,,,,,,452.5631736310024,23,blank-141.jpg,AC,1,vpnl,2023-11-16_21h08.22.391,longbabyloc,2023.2.2,59.961477626392146,
,,,,,,,,453.06278229900636,23,blank-142.jpg,AC,1,vpnl,2023-11-16_21h08.22.391,longbabyloc,2023.2.2,59.961477626392146,
,,,,,,,,453.5629495320027,23,blank-143.jpg,AC,1,vpnl,2023-11-16_21h08.22.391,longbabyloc,2023.2.2,59.961477626392146,
,,,,,,,,454.0625636170007,23,blank-144.jpg,AC,1,vpnl,2023-11-16_21h08.22.391,longbabyloc,2023.2.2,59.961477626392146,
,,,,,,,,454.56309252700885,24,scenes-129.jpg,AC,1,vpnl,2023-11-16_21h08.22.391,longbabyloc,2023.2.2,59.961477626392146,
,,,,,,,,455.06262678500207,24,scenes-130.jpg,AC,1,vpnl,2023-11-16_21h08.22.391,longbabyloc,2023.2.2,59.961477626392146,
,,,,,,,,455.5627910540061,24,scenes-131.jpg,AC,1,vpnl,2023-11-16_21h08.22.391,longbabyloc,2023.2.2,59.961477626392146,
,,,,,,,,456.0625822130096,24,scenes-132.jpg,AC,1,vpnl,2023-11-16_21h08.22.391,longbabyloc,2023.2.2,59.961477626392146,
,,,,,,,,456.5630253430136,24,scenes-133.jpg,AC,1,vpnl,2023-11-16_21h08.22.391,longbabyloc,2023.2.2,59.961477626392146,
,,,,,,,,457.06279289801023,24,scenes-134.jpg,AC,1,vpnl,2023-11-16_21h08.22.391,longbabyloc,2023.2.2,59.961477626392146,
,,,,,,,,457.5628514030104,24,scenes-135.jpg,AC,1,vpnl,2023-11-16_21h08.22.391,longbabyloc,2023.2.2,59.961477626392146,
,,,,,,,,458.06266660300025,24,scenes-136.jpg,AC,1,vpnl,2023-11-16_21h08.22.391,longbabyloc,2023.2.2,59.961477626392146,
,,,,,,,,458.56305178000184,25,faces-129.jpg,AC,1,vpnl,2023-11-16_21h08.22.391,longbabyloc,2023.2.2,59.961477626392146,
,,,,,,,,459.0625743790006,25,faces-130.jpg,AC,1,vpnl,2023-11-16_21h08.22.391,longbabyloc,2023.2.2,59.961477626392146,
,,,,,,,,459.5627785520046,25,faces-131.jpg,AC,1,vpnl,2023-11-16_21h08.22.391,longbabyloc,2023.2.2,59.961477626392146,
,,,,,,,,460.0624578410061,25,faces-132.jpg,AC,1,vpnl,2023-11-16_21h08.22.391,longbabyloc,2023.2.2,59.961477626392146,
,,,,,,,,460.5681161600078,25,faces-133.jpg,AC,1,vpnl,2023-11-16_21h08.22.391,longbabyloc,2023.2.2,59.961477626392146,
,,,,,,,,461.0626051660074,25,faces-134.jpg,AC,1,vpnl,2023-11-16_21h08.22.391,longbabyloc,2023.2.2,59.961477626392146,
,,,,,,,,461.5633565290045,25,faces-135.jpg,AC,1,vpnl,2023-11-16_21h08.22.391,longbabyloc,2023.2.2,59.961477626392146,
,,,,,,,,462.06266623100964,25,faces-136.jpg,AC,1,vpnl,2023-11-16_21h08.22.391,longbabyloc,2023.2.2,59.961477626392146,
,,,,,,,,462.5635830920073,26,cars-129.jpg,AC,1,vpnl,2023-11-16_21h08.22.391,longbabyloc,2023.2.2,59.961477626392146,
,,,,,,,,463.06252060001134,26,cars-130.jpg,AC,1,vpnl,2023-11-16_21h08.22.391,longbabyloc,2023.2.2,59.961477626392146,
,,,,,,,,463.56271240400383,26,cars-131.jpg,AC,1,vpnl,2023-11-16_21h08.22.391,longbabyloc,2023.2.2,59.961477626392146,
,,,,,,,,464.06243085600727,26,cars-132.jpg,AC,1,vpnl,2023-11-16_21h08.22.391,longbabyloc,2023.2.2,59.961477626392146,
,,,,,,,,464.5632128790021,26,cars-133.jpg,AC,1,vpnl,2023-11-16_21h08.22.391,longbabyloc,2023.2.2,59.961477626392146,
,,,,,,,,465.0624203040061,26,cars-134.jpg,AC,1,vpnl,2023-11-16_21h08.22.391,longbabyloc,2023.2.2,59.961477626392146,
,,,,,,,,465.56274700700305,26,cars-135.jpg,AC,1,vpnl,2023-11-16_21h08.22.391,longbabyloc,2023.2.2,59.961477626392146,
,,,,,,,,466.0623930980073,26,cars-136.jpg,AC,1,vpnl,2023-11-16_21h08.22.391,longbabyloc,2023.2.2,59.961477626392146,
,,,,,,,,466.5632386250072,27,faces-137.jpg,AC,1,vpnl,2023-11-16_21h08.22.391,longbabyloc,2023.2.2,59.961477626392146,
,,,,,,,,467.0624489890033,27,faces-138.jpg,AC,1,vpnl,2023-11-16_21h08.22.391,longbabyloc,2023.2.2,59.961477626392146,
,,,,,,,,467.5625626050023,27,faces-139.jpg,AC,1,vpnl,2023-11-16_21h08.22.391,longbabyloc,2023.2.2,59.961477626392146,
,,,,,,,,468.0622834759997,27,faces-140.jpg,AC,1,vpnl,2023-11-16_21h08.22.391,longbabyloc,2023.2.2,59.961477626392146,
,,,,,,,,468.5630453170015,27,faces-141.jpg,AC,1,vpnl,2023-11-16_21h08.22.391,longbabyloc,2023.2.2,59.961477626392146,
,,,,,,,,469.06235343300796,27,faces-142.jpg,AC,1,vpnl,2023-11-16_21h08.22.391,longbabyloc,2023.2.2,59.961477626392146,
,,,,,,,,469.56256720901,27,faces-143.jpg,AC,1,vpnl,2023-11-16_21h08.22.391,longbabyloc,2023.2.2,59.961477626392146,
,,,,,,,,470.0623584850109,27,faces-144.jpg,AC,1,vpnl,2023-11-16_21h08.22.391,longbabyloc,2023.2.2,59.961477626392146,
,,,,,,,,470.56308926601196,28,scenes-137.jpg,AC,1,vpnl,2023-11-16_21h08.22.391,longbabyloc,2023.2.2,59.961477626392146,
,,,,,,,,471.0623506770062,28,scenes-138.jpg,AC,1,vpnl,2023-11-16_21h08.22.391,longbabyloc,2023.2.2,59.961477626392146,
,,,,,,,,471.56293317601376,28,scenes-139.jpg,AC,1,vpnl,2023-11-16_21h08.22.391,longbabyloc,2023.2.2,59.961477626392146,
,,,,,,,,472.0623351440008,28,scenes-140.jpg,AC,1,vpnl,2023-11-16_21h08.22.391,longbabyloc,2023.2.2,59.961477626392146,
,,,,,,,,472.56292520900024,28,scenes-141.jpg,AC,1,vpnl,2023-11-16_21h08.22.391,longbabyloc,2023.2.2,59.961477626392146,
,,,,,,,,473.0622738050006,28,scenes-142.jpg,AC,1,vpnl,2023-11-16_21h08.22.391,longbabyloc,2023.2.2,59.961477626392146,
,,,,,,,,473.5624885010038,28,scenes-143.jpg,AC,1,vpnl,2023-11-16_21h08.22.391,longbabyloc,2023.2.2,59.961477626392146,
,,,,,,,,474.0622573080036,28,scenes-144.jpg,AC,1,vpnl,2023-11-16_21h08.22.391,longbabyloc,2023.2.2,59.961477626392146,
,,,,,,,,474.56303737600683,29,blank-1.jpg,AC,1,vpnl,2023-11-16_21h08.22.391,longbabyloc,2023.2.2,59.961477626392146,
,,,,,,,,475.0623478010093,29,blank-2.jpg,AC,1,vpnl,2023-11-16_21h08.22.391,longbabyloc,2023.2.2,59.961477626392146,
,,,,,,,,475.5624926580058,29,blank-3.jpg,AC,1,vpnl,2023-11-16_21h08.22.391,longbabyloc,2023.2.2,59.961477626392146,
,,,,,,,,476.0623116630013,29,blank-4.jpg,AC,1,vpnl,2023-11-16_21h08.22.391,longbabyloc,2023.2.2,59.961477626392146,
,,,,,,,,476.563285465003,29,blank-5.jpg,AC,1,vpnl,2023-11-16_21h08.22.391,longbabyloc,2023.2.2,59.961477626392146,
,,,,,,,,477.0623227410106,29,blank-6.jpg,AC,1,vpnl,2023-11-16_21h08.22.391,longbabyloc,2023.2.2,59.961477626392146,
,,,,,,,,477.5624740340136,29,blank-7.jpg,AC,1,vpnl,2023-11-16_21h08.22.391,longbabyloc,2023.2.2,59.961477626392146,
,,,,,,,,478.0621644530038,29,blank-8.jpg,AC,1,vpnl,2023-11-16_21h08.22.391,longbabyloc,2023.2.2,59.961477626392146,
,,,,,,,,478.5629315050028,30,hands-137.jpg,AC,1,vpnl,2023-11-16_21h08.22.391,longbabyloc,2023.2.2,59.961477626392146,
,,,,,,,,479.0622621310031,30,hands-138.jpg,AC,1,vpnl,2023-11-16_21h08.22.391,longbabyloc,2023.2.2,59.961477626392146,
,,,,,,,,479.5625376040116,30,hands-139.jpg,AC,1,vpnl,2023-11-16_21h08.22.391,longbabyloc,2023.2.2,59.961477626392146,
,,,,,,,,480.0620508500142,30,hands-140.jpg,AC,1,vpnl,2023-11-16_21h08.22.391,longbabyloc,2023.2.2,59.961477626392146,
,,,,,,,,480.5630090400082,30,hands-141.jpg,AC,1,vpnl,2023-11-16_21h08.22.391,longbabyloc,2023.2.2,59.961477626392146,
,,,,,,,,481.0621216030122,30,hands-142.jpg,AC,1,vpnl,2023-11-16_21h08.22.391,longbabyloc,2023.2.2,59.961477626392146,
,,,,,,,,481.56265973600966,30,hands-143.jpg,AC,1,vpnl,2023-11-16_21h08.22.391,longbabyloc,2023.2.2,59.961477626392146,
,,,,,,,,482.0621534760139,30,hands-144.jpg,AC,1,vpnl,2023-11-16_21h08.22.391,longbabyloc,2023.2.2,59.961477626392146,
,,,,,,,,482.56282243200985,31,cars-137.jpg,AC,1,vpnl,2023-11-16_21h08.22.391,longbabyloc,2023.2.2,59.961477626392146,
,,,,,,,,483.06217927300895,31,cars-138.jpg,AC,1,vpnl,2023-11-16_21h08.22.391,longbabyloc,2023.2.2,59.961477626392146,
,,,,,,,,483.5624153400131,31,cars-139.jpg,AC,1,vpnl,2023-11-16_21h08.22.391,longbabyloc,2023.2.2,59.961477626392146,
,,,,,,,,484.0619949400134,31,cars-140.jpg,AC,1,vpnl,2023-11-16_21h08.22.391,longbabyloc,2023.2.2,59.961477626392146,
,,,,,,,,484.5628337780072,31,cars-141.jpg,AC,1,vpnl,2023-11-16_21h08.22.391,longbabyloc,2023.2.2,59.961477626392146,
,,,,,,,,485.0621728420083,31,cars-142.jpg,AC,1,vpnl,2023-11-16_21h08.22.391,longbabyloc,2023.2.2,59.961477626392146,
,,,,,,,,485.5624522080034,31,cars-143.jpg,AC,1,vpnl,2023-11-16_21h08.22.391,longbabyloc,2023.2.2,59.961477626392146,
,,,,,,,,486.0620223930018,31,cars-144.jpg,AC,1,vpnl,2023-11-16_21h08.22.391,longbabyloc,2023.2.2,59.961477626392146,
,,,,,,,,486.5627901080006,32,faces-1.jpg,AC,1,vpnl,2023-11-16_21h08.22.391,longbabyloc,2023.2.2,59.961477626392146,
,,,,,,,,487.0620803930069,32,faces-2.jpg,AC,1,vpnl,2023-11-16_21h08.22.391,longbabyloc,2023.2.2,59.961477626392146,
,,,,,,,,487.56239423200896,32,faces-3.jpg,AC,1,vpnl,2023-11-16_21h08.22.391,longbabyloc,2023.2.2,59.961477626392146,
,,,,,,,,488.0618932040088,32,faces-4.jpg,AC,1,vpnl,2023-11-16_21h08.22.391,longbabyloc,2023.2.2,59.961477626392146,
,,,,,,,,488.56246065400774,32,faces-5.jpg,AC,1,vpnl,2023-11-16_21h08.22.391,longbabyloc,2023.2.2,59.961477626392146,
,,,,,,,,489.0619400900032,32,faces-6.jpg,AC,1,vpnl,2023-11-16_21h08.22.391,longbabyloc,2023.2.2,59.961477626392146,
,,,,,,,,489.5623752250103,32,faces-7.jpg,AC,1,vpnl,2023-11-16_21h08.22.391,longbabyloc,2023.2.2,59.961477626392146,
,,,,,,,,490.06188017300155,32,faces-8.jpg,AC,1,vpnl,2023-11-16_21h08.22.391,longbabyloc,2023.2.2,59.961477626392146,
,,,,,,,,490.56245365701034,33,hands-1.jpg,AC,1,vpnl,2023-11-16_21h08.22.391,longbabyloc,2023.2.2,59.961477626392146,
,,,,,,,,491.06198364301235,33,hands-2.jpg,AC,1,vpnl,2023-11-16_21h08.22.391,longbabyloc,2023.2.2,59.961477626392146,
,,,,,,,,491.56251324201,33,hands-3.jpg,AC,1,vpnl,2023-11-16_21h08.22.391,longbabyloc,2023.2.2,59.961477626392146,
,,,,,,,,492.0619454510015,33,hands-4.jpg,AC,1,vpnl,2023-11-16_21h08.22.391,longbabyloc,2023.2.2,59.961477626392146,
,,,,,,,,492.56228760701197,33,hands-5.jpg,AC,1,vpnl,2023-11-16_21h08.22.391,longbabyloc,2023.2.2,59.961477626392146,
,,,,,,,,493.0618909310142,33,hands-6.jpg,AC,1,vpnl,2023-11-16_21h08.22.391,longbabyloc,2023.2.2,59.961477626392146,
,,,,,,,,493.56219404100557,33,hands-7.jpg,AC,1,vpnl,2023-11-16_21h08.22.391,longbabyloc,2023.2.2,59.961477626392146,
,,,,,,,,494.06182546701166,33,hands-8.jpg,AC,1,vpnl,2023-11-16_21h08.22.391,longbabyloc,2023.2.2,59.961477626392146,
,,,,,,,,494.5622044070042,34,blank-9.jpg,AC,1,vpnl,2023-11-16_21h08.22.391,longbabyloc,2023.2.2,59.961477626392146,
,,,,,,,,495.0618814190093,34,blank-10.jpg,AC,1,vpnl,2023-11-16_21h08.22.391,longbabyloc,2023.2.2,59.961477626392146,
,,,,,,,,495.56221019200166,34,blank-11.jpg,AC,1,vpnl,2023-11-16_21h08.22.391,longbabyloc,2023.2.2,59.961477626392146,
,,,,,,,,496.0618700040068,34,blank-12.jpg,AC,1,vpnl,2023-11-16_21h08.22.391,longbabyloc,2023.2.2,59.961477626392146,
,,,,,,,,496.5620771140093,34,blank-13.jpg,AC,1,vpnl,2023-11-16_21h08.22.391,longbabyloc,2023.2.2,59.961477626392146,
,,,,,,,,497.06184948301234,34,blank-14.jpg,AC,1,vpnl,2023-11-16_21h08.22.391,longbabyloc,2023.2.2,59.961477626392146,
,,,,,,,,497.5622050450038,34,blank-15.jpg,AC,1,vpnl,2023-11-16_21h08.22.391,longbabyloc,2023.2.2,59.961477626392146,
,,,,,,,,498.061750673005,34,blank-16.jpg,AC,1,vpnl,2023-11-16_21h08.22.391,longbabyloc,2023.2.2,59.961477626392146,
,,,,,,,,498.5620625490119,35,scenes-1.jpg,AC,1,vpnl,2023-11-16_21h08.22.391,longbabyloc,2023.2.2,59.961477626392146,
,,,,,,,,499.06185432900384,35,scenes-2.jpg,AC,1,vpnl,2023-11-16_21h08.22.391,longbabyloc,2023.2.2,59.961477626392146,
,,,,,,,,499.5621134009998,35,scenes-3.jpg,AC,1,vpnl,2023-11-16_21h08.22.391,longbabyloc,2023.2.2,59.961477626392146,
,,,,,,,,500.0617404860095,35,scenes-4.jpg,AC,1,vpnl,2023-11-16_21h08.22.391,longbabyloc,2023.2.2,59.961477626392146,
,,,,,,,,500.5620255780086,35,scenes-5.jpg,AC,1,vpnl,2023-11-16_21h08.22.391,longbabyloc,2023.2.2,59.961477626392146,
,,,,,,,,501.0617837590107,35,scenes-6.jpg,AC,1,vpnl,2023-11-16_21h08.22.391,longbabyloc,2023.2.2,59.961477626392146,
,,,,,,,,501.5621236720035,35,scenes-7.jpg,AC,1,vpnl,2023-11-16_21h08.22.391,longbabyloc,2023.2.2,59.961477626392146,
,,,,,,,,502.0618550090003,35,scenes-8.jpg,AC,1,vpnl,2023-11-16_21h08.22.391,longbabyloc,2023.2.2,59.961477626392146,
,,,,,,,,502.56191984401084,36,cars-1.jpg,AC,1,vpnl,2023-11-16_21h08.22.391,longbabyloc,2023.2.2,59.961477626392146,
,,,,,,,,503.06176632700954,36,cars-2.jpg,AC,1,vpnl,2023-11-16_21h08.22.391,longbabyloc,2023.2.2,59.961477626392146,
,,,,,,,,503.5620599350077,36,cars-3.jpg,AC,1,vpnl,2023-11-16_21h08.22.391,longbabyloc,2023.2.2,59.961477626392146,
,,,,,,,,504.06171701800486,36,cars-4.jpg,AC,1,vpnl,2023-11-16_21h08.22.391,longbabyloc,2023.2.2,59.961477626392146,
,,,,,,,,504.56183053301356,36,cars-5.jpg,AC,1,vpnl,2023-11-16_21h08.22.391,longbabyloc,2023.2.2,59.961477626392146,
,,,,,,,,505.06178497300425,36,cars-6.jpg,AC,1,vpnl,2023-11-16_21h08.22.391,longbabyloc,2023.2.2,59.961477626392146,
,,,,,,,,505.56194452800264,36,cars-7.jpg,AC,1,vpnl,2023-11-16_21h08.22.391,longbabyloc,2023.2.2,59.961477626392146,
,,,,,,,,506.0617294190015,36,cars-8.jpg,AC,1,vpnl,2023-11-16_21h08.22.391,longbabyloc,2023.2.2,59.961477626392146,
,,,,,,,,506.5618439430109,37,blank-17.jpg,AC,1,vpnl,2023-11-16_21h08.22.391,longbabyloc,2023.2.2,59.961477626392146,
,,,,,,,,507.06174279600964,37,blank-18.jpg,AC,1,vpnl,2023-11-16_21h08.22.391,longbabyloc,2023.2.2,59.961477626392146,
,,,,,,,,507.56188880901027,37,blank-19.jpg,AC,1,vpnl,2023-11-16_21h08.22.391,longbabyloc,2023.2.2,59.961477626392146,
,,,,,,,,508.06150999700185,37,blank-20.jpg,AC,1,vpnl,2023-11-16_21h08.22.391,longbabyloc,2023.2.2,59.961477626392146,
,,,,,,,,508.5619847520138,37,blank-21.jpg,AC,1,vpnl,2023-11-16_21h08.22.391,longbabyloc,2023.2.2,59.961477626392146,
,,,,,,,,509.061749186003,37,blank-22.jpg,AC,1,vpnl,2023-11-16_21h08.22.391,longbabyloc,2023.2.2,59.961477626392146,
,,,,,,,,509.5623424670048,37,blank-23.jpg,AC,1,vpnl,2023-11-16_21h08.22.391,longbabyloc,2023.2.2,59.961477626392146,
,,,,,,,,510.0620004830125,37,blank-24.jpg,AC,1,vpnl,2023-11-16_21h08.22.391,longbabyloc,2023.2.2,59.961477626392146,
,,,,,,,,510.561467395004,38,hands-9.jpg,AC,1,vpnl,2023-11-16_21h08.22.391,longbabyloc,2023.2.2,59.961477626392146,
,,,,,,,,511.0616997590114,38,hands-10.jpg,AC,1,vpnl,2023-11-16_21h08.22.391,longbabyloc,2023.2.2,59.961477626392146,
,,,,,,,,511.5618529360072,38,hands-11.jpg,AC,1,vpnl,2023-11-16_21h08.22.391,longbabyloc,2023.2.2,59.961477626392146,
,,,,,,,,512.0616932700068,38,hands-12.jpg,AC,1,vpnl,2023-11-16_21h08.22.391,longbabyloc,2023.2.2,59.961477626392146,
,,,,,,,,512.5612039430125,38,hands-13.jpg,AC,1,vpnl,2023-11-16_21h08.22.391,longbabyloc,2023.2.2,59.961477626392146,
,,,,,,,,513.061637870007,38,hands-14.jpg,AC,1,vpnl,2023-11-16_21h08.22.391,longbabyloc,2023.2.2,59.961477626392146,
,,,,,,,,513.5617851040006,38,hands-15.jpg,AC,1,vpnl,2023-11-16_21h08.22.391,longbabyloc,2023.2.2,59.961477626392146,
,,,,,,,,514.0614242540032,38,hands-16.jpg,AC,1,vpnl,2023-11-16_21h08.22.391,longbabyloc,2023.2.2,59.961477626392146,
,,,,,,,,514.5612365770066,39,cars-9.jpg,AC,1,vpnl,2023-11-16_21h08.22.391,longbabyloc,2023.2.2,59.961477626392146,
,,,,,,,,515.0615331110021,39,cars-10.jpg,AC,1,vpnl,2023-11-16_21h08.22.391,longbabyloc,2023.2.2,59.961477626392146,
,,,,,,,,515.5617184760049,39,cars-11.jpg,AC,1,vpnl,2023-11-16_21h08.22.391,longbabyloc,2023.2.2,59.961477626392146,
,,,,,,,,516.0615726329997,39,cars-12.jpg,AC,1,vpnl,2023-11-16_21h08.22.391,longbabyloc,2023.2.2,59.961477626392146,
,,,,,,,,516.5612201720069,39,cars-13.jpg,AC,1,vpnl,2023-11-16_21h08.22.391,longbabyloc,2023.2.2,59.961477626392146,
,,,,,,,,517.0617237030092,39,cars-14.jpg,AC,1,vpnl,2023-11-16_21h08.22.391,longbabyloc,2023.2.2,59.961477626392146,
,,,,,,,,517.5616739910038,39,cars-15.jpg,AC,1,vpnl,2023-11-16_21h08.22.391,longbabyloc,2023.2.2,59.961477626392146,
,,,,,,,,518.06136023,39,cars-16.jpg,AC,1,vpnl,2023-11-16_21h08.22.391,longbabyloc,2023.2.2,59.961477626392146,
,,,,,,,,518.5612252660067,40,scenes-9.jpg,AC,1,vpnl,2023-11-16_21h08.22.391,longbabyloc,2023.2.2,59.961477626392146,
,,,,,,,,519.0614322980109,40,scenes-10.jpg,AC,1,vpnl,2023-11-16_21h08.22.391,longbabyloc,2023.2.2,59.961477626392146,
,,,,,,,,519.5618352770107,40,scenes-11.jpg,AC,1,vpnl,2023-11-16_21h08.22.391,longbabyloc,2023.2.2,59.961477626392146,
,,,,,,,,520.0615055410017,40,scenes-12.jpg,AC,1,vpnl,2023-11-16_21h08.22.391,longbabyloc,2023.2.2,59.961477626392146,
,,,,,,,,520.5612947460031,40,scenes-13.jpg,AC,1,vpnl,2023-11-16_21h08.22.391,longbabyloc,2023.2.2,59.961477626392146,
,,,,,,,,521.0657836010068,40,scenes-14.jpg,AC,1,vpnl,2023-11-16_21h08.22.391,longbabyloc,2023.2.2,59.961477626392146,
,,,,,,,,521.5618848280137,40,scenes-15.jpg,AC,1,vpnl,2023-11-16_21h08.22.391,longbabyloc,2023.2.2,59.961477626392146,
,,,,,,,,522.0614660250139,40,scenes-16.jpg,AC,1,vpnl,2023-11-16_21h08.22.391,longbabyloc,2023.2.2,59.961477626392146,
,,,,,,,,522.5611699170113,41,faces-9.jpg,AC,1,vpnl,2023-11-16_21h08.22.391,longbabyloc,2023.2.2,59.961477626392146,
,,,,,,,,523.0612766290142,41,faces-10.jpg,AC,1,vpnl,2023-11-16_21h08.22.391,longbabyloc,2023.2.2,59.961477626392146,
,,,,,,,,523.5617647640029,41,faces-11.jpg,AC,1,vpnl,2023-11-16_21h08.22.391,longbabyloc,2023.2.2,59.961477626392146,
,,,,,,,,524.0612966390036,41,faces-12.jpg,AC,1,vpnl,2023-11-16_21h08.22.391,longbabyloc,2023.2.2,59.961477626392146,
,,,,,,,,524.5611466860137,41,faces-13.jpg,AC,1,vpnl,2023-11-16_21h08.22.391,longbabyloc,2023.2.2,59.961477626392146,
,,,,,,,,525.0612939650018,41,faces-14.jpg,AC,1,vpnl,2023-11-16_21h08.22.391,longbabyloc,2023.2.2,59.961477626392146,
,,,,,,,,525.5618817140057,41,faces-15.jpg,AC,1,vpnl,2023-11-16_21h08.22.391,longbabyloc,2023.2.2,59.961477626392146,
,,,,,,,,526.0613637230126,41,faces-16.jpg,AC,1,vpnl,2023-11-16_21h08.22.391,longbabyloc,2023.2.2,59.961477626392146,
,,,,,,,,526.5611444460083,42,scenes-17.jpg,AC,1,vpnl,2023-11-16_21h08.22.391,longbabyloc,2023.2.2,59.961477626392146,
,,,,,,,,527.0614466080006,42,scenes-18.jpg,AC,1,vpnl,2023-11-16_21h08.22.391,longbabyloc,2023.2.2,59.961477626392146,
,,,,,,,,527.5618499350094,42,scenes-19.jpg,AC,1,vpnl,2023-11-16_21h08.22.391,longbabyloc,2023.2.2,59.961477626392146,
,,,,,,,,528.0613855170086,42,scenes-20.jpg,AC,1,vpnl,2023-11-16_21h08.22.391,longbabyloc,2023.2.2,59.961477626392146,
,,,,,,,,528.5610463910125,42,scenes-21.jpg,AC,1,vpnl,2023-11-16_21h08.22.391,longbabyloc,2023.2.2,59.961477626392146,
,,,,,,,,529.0613041510078,42,scenes-22.jpg,AC,1,vpnl,2023-11-16_21h08.22.391,longbabyloc,2023.2.2,59.961477626392146,
,,,,,,,,529.5614210280037,42,scenes-23.jpg,AC,1,vpnl,2023-11-16_21h08.22.391,longbabyloc,2023.2.2,59.961477626392146,
,,,,,,,,530.061373020013,42,scenes-24.jpg,AC,1,vpnl,2023-11-16_21h08.22.391,longbabyloc,2023.2.2,59.961477626392146,
,,,,,,,,530.5609882930003,43,hands-17.jpg,AC,1,vpnl,2023-11-16_21h08.22.391,longbabyloc,2023.2.2,59.961477626392146,
,,,,,,,,531.0612251120037,43,hands-18.jpg,AC,1,vpnl,2023-11-16_21h08.22.391,longbabyloc,2023.2.2,59.961477626392146,
,,,,,,,,531.561403027008,43,hands-19.jpg,AC,1,vpnl,2023-11-16_21h08.22.391,longbabyloc,2023.2.2,59.961477626392146,
,,,,,,,,532.0612556510023,43,hands-20.jpg,AC,1,vpnl,2023-11-16_21h08.22.391,longbabyloc,2023.2.2,59.961477626392146,
,,,,,,,,532.5608465450059,43,hands-21.jpg,AC,1,vpnl,2023-11-16_21h08.22.391,longbabyloc,2023.2.2,59.961477626392146,
,,,,,,,,533.0612194770074,43,hands-22.jpg,AC,1,vpnl,2023-11-16_21h08.22.391,longbabyloc,2023.2.2,59.961477626392146,
,,,,,,,,533.5615833540069,43,hands-23.jpg,AC,1,vpnl,2023-11-16_21h08.22.391,longbabyloc,2023.2.2,59.961477626392146,
,,,,,,,,534.0611072419997,43,hands-24.jpg,AC,1,vpnl,2023-11-16_21h08.22.391,longbabyloc,2023.2.2,59.961477626392146,
,,,,,,,,534.5609598600131,44,blank-25.jpg,AC,1,vpnl,2023-11-16_21h08.22.391,longbabyloc,2023.2.2,59.961477626392146,
,,,,,,,,535.0611509490118,44,blank-26.jpg,AC,1,vpnl,2023-11-16_21h08.22.391,longbabyloc,2023.2.2,59.961477626392146,
,,,,,,,,535.5616078800085,44,blank-27.jpg,AC,1,vpnl,2023-11-16_21h08.22.391,longbabyloc,2023.2.2,59.961477626392146,
,,,,,,,,536.061065190006,44,blank-28.jpg,AC,1,vpnl,2023-11-16_21h08.22.391,longbabyloc,2023.2.2,59.961477626392146,
,,,,,,,,536.5611177820101,44,blank-29.jpg,AC,1,vpnl,2023-11-16_21h08.22.391,longbabyloc,2023.2.2,59.961477626392146,
,,,,,,,,537.0611353690038,44,blank-30.jpg,AC,1,vpnl,2023-11-16_21h08.22.391,longbabyloc,2023.2.2,59.961477626392146,
,,,,,,,,537.5614905300026,44,blank-31.jpg,AC,1,vpnl,2023-11-16_21h08.22.391,longbabyloc,2023.2.2,59.961477626392146,
,,,,,,,,538.061076361002,44,blank-32.jpg,AC,1,vpnl,2023-11-16_21h08.22.391,longbabyloc,2023.2.2,59.961477626392146,
,,,,,,,,538.5608510010061,45,cars-17.jpg,AC,1,vpnl,2023-11-16_21h08.22.391,longbabyloc,2023.2.2,59.961477626392146,
,,,,,,,,539.0610882340115,45,cars-18.jpg,AC,1,vpnl,2023-11-16_21h08.22.391,longbabyloc,2023.2.2,59.961477626392146,
,,,,,,,,539.5615280580096,45,cars-19.jpg,AC,1,vpnl,2023-11-16_21h08.22.391,longbabyloc,2023.2.2,59.961477626392146,
,,,,,,,,540.0611491260061,45,cars-20.jpg,AC,1,vpnl,2023-11-16_21h08.22.391,longbabyloc,2023.2.2,59.961477626392146,
,,,,,,,,540.5656961220084,45,cars-21.jpg,AC,1,vpnl,2023-11-16_21h08.22.391,longbabyloc,2023.2.2,59.961477626392146,
,,,,,,,,541.0612670950068,45,cars-22.jpg,AC,1,vpnl,2023-11-16_21h08.22.391,longbabyloc,2023.2.2,59.961477626392146,
,,,,,,,,541.5612556230044,45,cars-23.jpg,AC,1,vpnl,2023-11-16_21h08.22.391,longbabyloc,2023.2.2,59.961477626392146,
,,,,,,,,542.0610885080096,45,cars-24.jpg,AC,1,vpnl,2023-11-16_21h08.22.391,longbabyloc,2023.2.2,59.961477626392146,
,,,,,,,,542.5607547890104,46,faces-17.jpg,AC,1,vpnl,2023-11-16_21h08.22.391,longbabyloc,2023.2.2,59.961477626392146,
,,,,,,,,543.0610760609998,46,faces-18.jpg,AC,1,vpnl,2023-11-16_21h08.22.391,longbabyloc,2023.2.2,59.961477626392146,
,,,,,,,,543.5612036810053,46,faces-19.jpg,AC,1,vpnl,2023-11-16_21h08.22.391,longbabyloc,2023.2.2,59.961477626392146,
,,,,,,,,544.0608752930129,46,faces-20.jpg,AC,1,vpnl,2023-11-16_21h08.22.391,longbabyloc,2023.2.2,59.961477626392146,
,,,,,,,,544.5607392240054,46,faces-21.jpg,AC,1,vpnl,2023-11-16_21h08.22.391,longbabyloc,2023.2.2,59.961477626392146,
,,,,,,,,545.0609511780058,46,faces-22.jpg,AC,1,vpnl,2023-11-16_21h08.22.391,longbabyloc,2023.2.2,59.961477626392146,
,,,,,,,,545.5615761930094,46,faces-23.jpg,AC,1,vpnl,2023-11-16_21h08.22.391,longbabyloc,2023.2.2,59.961477626392146,
,,,,,,,,546.0611536310025,46,faces-24.jpg,AC,1,vpnl,2023-11-16_21h08.22.391,longbabyloc,2023.2.2,59.961477626392146,
,,,,,,,,546.5607756260142,47,hands-25.jpg,AC,1,vpnl,2023-11-16_21h08.22.391,longbabyloc,2023.2.2,59.961477626392146,
,,,,,,,,547.0609570369998,47,hands-26.jpg,AC,1,vpnl,2023-11-16_21h08.22.391,longbabyloc,2023.2.2,59.961477626392146,
,,,,,,,,547.5613407140045,47,hands-27.jpg,AC,1,vpnl,2023-11-16_21h08.22.391,longbabyloc,2023.2.2,59.961477626392146,
,,,,,,,,548.0609622760094,47,hands-28.jpg,AC,1,vpnl,2023-11-16_21h08.22.391,longbabyloc,2023.2.2,59.961477626392146,
,,,,,,,,548.5606397680094,47,hands-29.jpg,AC,1,vpnl,2023-11-16_21h08.22.391,longbabyloc,2023.2.2,59.961477626392146,
,,,,,,,,549.0608530980098,47,hands-30.jpg,AC,1,vpnl,2023-11-16_21h08.22.391,longbabyloc,2023.2.2,59.961477626392146,
,,,,,,,,549.5610961390048,47,hands-31.jpg,AC,1,vpnl,2023-11-16_21h08.22.391,longbabyloc,2023.2.2,59.961477626392146,
,,,,,,,,550.060900869008,47,hands-32.jpg,AC,1,vpnl,2023-11-16_21h08.22.391,longbabyloc,2023.2.2,59.961477626392146,
,,,,,,,,550.5606889680057,48,cars-25.jpg,AC,1,vpnl,2023-11-16_21h08.22.391,longbabyloc,2023.2.2,59.961477626392146,
,,,,,,,,551.060868110013,48,cars-26.jpg,AC,1,vpnl,2023-11-16_21h08.22.391,longbabyloc,2023.2.2,59.961477626392146,
,,,,,,,,551.5609476600075,48,cars-27.jpg,AC,1,vpnl,2023-11-16_21h08.22.391,longbabyloc,2023.2.2,59.961477626392146,
,,,,,,,,552.0610089000111,48,cars-28.jpg,AC,1,vpnl,2023-11-16_21h08.22.391,longbabyloc,2023.2.2,59.961477626392146,
,,,,,,,,552.5606083200109,48,cars-29.jpg,AC,1,vpnl,2023-11-16_21h08.22.391,longbabyloc,2023.2.2,59.961477626392146,
,,,,,,,,553.0607751380012,48,cars-30.jpg,AC,1,vpnl,2023-11-16_21h08.22.391,longbabyloc,2023.2.2,59.961477626392146,
,,,,,,,,553.5610200930096,48,cars-31.jpg,AC,1,vpnl,2023-11-16_21h08.22.391,longbabyloc,2023.2.2,59.961477626392146,
,,,,,,,,554.0615023080027,48,cars-32.jpg,AC,1,vpnl,2023-11-16_21h08.22.391,longbabyloc,2023.2.2,59.961477626392146,
,,,,,,,,554.5605077810033,49,scenes-25.jpg,AC,1,vpnl,2023-11-16_21h08.22.391,longbabyloc,2023.2.2,59.961477626392146,
,,,,,,,,555.060724985,49,scenes-26.jpg,AC,1,vpnl,2023-11-16_21h08.22.391,longbabyloc,2023.2.2,59.961477626392146,
,,,,,,,,555.5614433890005,49,scenes-27.jpg,AC,1,vpnl,2023-11-16_21h08.22.391,longbabyloc,2023.2.2,59.961477626392146,
,,,,,,,,556.0608221140137,49,scenes-28.jpg,AC,1,vpnl,2023-11-16_21h08.22.391,longbabyloc,2023.2.2,59.961477626392146,
,,,,,,,,556.5605780520127,49,scenes-29.jpg,AC,1,vpnl,2023-11-16_21h08.22.391,longbabyloc,2023.2.2,59.961477626392146,
,,,,,,,,557.0607904700009,49,scenes-30.jpg,AC,1,vpnl,2023-11-16_21h08.22.391,longbabyloc,2023.2.2,59.961477626392146,
,,,,,,,,557.5609458010003,49,scenes-31.jpg,AC,1,vpnl,2023-11-16_21h08.22.391,longbabyloc,2023.2.2,59.961477626392146,
,,,,,,,,558.0607239330129,49,scenes-32.jpg,AC,1,vpnl,2023-11-16_21h08.22.391,longbabyloc,2023.2.2,59.961477626392146,
,,,,,,,,558.5604245540017,50,faces-25.jpg,AC,1,vpnl,2023-11-16_21h08.22.391,longbabyloc,2023.2.2,59.961477626392146,
,,,,,,,,559.0606879760016,50,faces-26.jpg,AC,1,vpnl,2023-11-16_21h08.22.391,longbabyloc,2023.2.2,59.961477626392146,
,,,,,,,,559.5611036200135,50,faces-27.jpg,AC,1,vpnl,2023-11-16_21h08.22.391,longbabyloc,2023.2.2,59.961477626392146,
,,,,,,,,560.0607634200132,50,faces-28.jpg,AC,1,vpnl,2023-11-16_21h08.22.391,longbabyloc,2023.2.2,59.961477626392146,
,,,,,,,,560.5604429380037,50,faces-29.jpg,AC,1,vpnl,2023-11-16_21h08.22.391,longbabyloc,2023.2.2,59.961477626392146,
,,,,,,,,561.0608325550129,50,faces-30.jpg,AC,1,vpnl,2023-11-16_21h08.22.391,longbabyloc,2023.2.2,59.961477626392146,
,,,,,,,,561.560906757004,50,faces-31.jpg,AC,1,vpnl,2023-11-16_21h08.22.391,longbabyloc,2023.2.2,59.961477626392146,
,,,,,,,,562.0606822810078,50,faces-32.jpg,AC,1,vpnl,2023-11-16_21h08.22.391,longbabyloc,2023.2.2,59.961477626392146,
,,,,,,,,562.5603686620016,51,blank-33.jpg,AC,1,vpnl,2023-11-16_21h08.22.391,longbabyloc,2023.2.2,59.961477626392146,
,,,,,,,,563.0605640390131,51,blank-34.jpg,AC,1,vpnl,2023-11-16_21h08.22.391,longbabyloc,2023.2.2,59.961477626392146,
,,,,,,,,563.5611049230065,51,blank-35.jpg,AC,1,vpnl,2023-11-16_21h08.22.391,longbabyloc,2023.2.2,59.961477626392146,
,,,,,,,,564.0608196900139,51,blank-36.jpg,AC,1,vpnl,2023-11-16_21h08.22.391,longbabyloc,2023.2.2,59.961477626392146,
,,,,,,,,564.5604562620138,51,blank-37.jpg,AC,1,vpnl,2023-11-16_21h08.22.391,longbabyloc,2023.2.2,59.961477626392146,
,,,,,,,,565.0606280730135,51,blank-38.jpg,AC,1,vpnl,2023-11-16_21h08.22.391,longbabyloc,2023.2.2,59.961477626392146,
,,,,,,,,565.5611185000016,51,blank-39.jpg,AC,1,vpnl,2023-11-16_21h08.22.391,longbabyloc,2023.2.2,59.961477626392146,
,,,,,,,,566.0605820120109,51,blank-40.jpg,AC,1,vpnl,2023-11-16_21h08.22.391,longbabyloc,2023.2.2,59.961477626392146,
,,,,,,,,566.5605177680118,52,cars-33.jpg,AC,1,vpnl,2023-11-16_21h08.22.391,longbabyloc,2023.2.2,59.961477626392146,
,,,,,,,,567.060620040007,52,cars-34.jpg,AC,1,vpnl,2023-11-16_21h08.22.391,longbabyloc,2023.2.2,59.961477626392146,
,,,,,,,,567.5611015190079,52,cars-35.jpg,AC,1,vpnl,2023-11-16_21h08.22.391,longbabyloc,2023.2.2,59.961477626392146,
,,,,,,,,568.0607013100089,52,cars-36.jpg,AC,1,vpnl,2023-11-16_21h08.22.391,longbabyloc,2023.2.2,59.961477626392146,
,,,,,,,,568.5602273560071,52,cars-37.jpg,AC,1,vpnl,2023-11-16_21h08.22.391,longbabyloc,2023.2.2,59.961477626392146,
,,,,,,,,569.0606292220036,52,cars-38.jpg,AC,1,vpnl,2023-11-16_21h08.22.391,longbabyloc,2023.2.2,59.961477626392146,
,,,,,,,,569.5605297160073,52,cars-39.jpg,AC,1,vpnl,2023-11-16_21h08.22.391,longbabyloc,2023.2.2,59.961477626392146,
,,,,,,,,570.0605157270038,52,cars-40.jpg,AC,1,vpnl,2023-11-16_21h08.22.391,longbabyloc,2023.2.2,59.961477626392146,
,,,,,,,,570.5602605260065,53,blank-41.jpg,AC,1,vpnl,2023-11-16_21h08.22.391,longbabyloc,2023.2.2,59.961477626392146,
,,,,,,,,571.0605357080058,53,blank-42.jpg,AC,1,vpnl,2023-11-16_21h08.22.391,longbabyloc,2023.2.2,59.961477626392146,
,,,,,,,,571.5613034080015,53,blank-43.jpg,AC,1,vpnl,2023-11-16_21h08.22.391,longbabyloc,2023.2.2,59.961477626392146,
,,,,,,,,572.0604789320059,53,blank-44.jpg,AC,1,vpnl,2023-11-16_21h08.22.391,longbabyloc,2023.2.2,59.961477626392146,
,,,,,,,,572.5601936010062,53,blank-45.jpg,AC,1,vpnl,2023-11-16_21h08.22.391,longbabyloc,2023.2.2,59.961477626392146,
,,,,,,,,573.0605050830054,53,blank-46.jpg,AC,1,vpnl,2023-11-16_21h08.22.391,longbabyloc,2023.2.2,59.961477626392146,
,,,,,,,,573.5606908980117,53,blank-47.jpg,AC,1,vpnl,2023-11-16_21h08.22.391,longbabyloc,2023.2.2,59.961477626392146,
,,,,,,,,574.0603778830118,53,blank-48.jpg,AC,1,vpnl,2023-11-16_21h08.22.391,longbabyloc,2023.2.2,59.961477626392146,
,,,,,,,,574.5601837730064,54,scenes-33.jpg,AC,1,vpnl,2023-11-16_21h08.22.391,longbabyloc,2023.2.2,59.961477626392146,
,,,,,,,,575.0606248210097,54,scenes-34.jpg,AC,1,vpnl,2023-11-16_21h08.22.391,longbabyloc,2023.2.2,59.961477626392146,
,,,,,,,,575.560650178013,54,scenes-35.jpg,AC,1,vpnl,2023-11-16_21h08.22.391,longbabyloc,2023.2.2,59.961477626392146,
,,,,,,,,576.0604025870125,54,scenes-36.jpg,AC,1,vpnl,2023-11-16_21h08.22.391,longbabyloc,2023.2.2,59.961477626392146,
,,,,,,,,576.5601477230084,54,scenes-37.jpg,AC,1,vpnl,2023-11-16_21h08.22.391,longbabyloc,2023.2.2,59.961477626392146,
,,,,,,,,577.0605895150075,54,scenes-38.jpg,AC,1,vpnl,2023-11-16_21h08.22.391,longbabyloc,2023.2.2,59.961477626392146,
,,,,,,,,577.5605670350051,54,scenes-39.jpg,AC,1,vpnl,2023-11-16_21h08.22.391,longbabyloc,2023.2.2,59.961477626392146,
,,,,,,,,578.060260682003,54,scenes-40.jpg,AC,1,vpnl,2023-11-16_21h08.22.391,longbabyloc,2023.2.2,59.961477626392146,
,,,,,,,,578.5602280340099,55,hands-33.jpg,AC,1,vpnl,2023-11-16_21h08.22.391,longbabyloc,2023.2.2,59.961477626392146,
,,,,,,,,579.060222449014,55,hands-34.jpg,AC,1,vpnl,2023-11-16_21h08.22.391,longbabyloc,2023.2.2,59.961477626392146,
,,,,,,,,579.5608453670138,55,hands-35.jpg,AC,1,vpnl,2023-11-16_21h08.22.391,longbabyloc,2023.2.2,59.961477626392146,
,,,,,,,,580.0603899730049,55,hands-36.jpg,AC,1,vpnl,2023-11-16_21h08.22.391,longbabyloc,2023.2.2,59.961477626392146,
,,,,,,,,580.5601194540068,55,hands-37.jpg,AC,1,vpnl,2023-11-16_21h08.22.391,longbabyloc,2023.2.2,59.961477626392146,
,,,,,,,,581.0602967030136,55,hands-38.jpg,AC,1,vpnl,2023-11-16_21h08.22.391,longbabyloc,2023.2.2,59.961477626392146,
,,,,,,,,581.5608637320111,55,hands-39.jpg,AC,1,vpnl,2023-11-16_21h08.22.391,longbabyloc,2023.2.2,59.961477626392146,
,,,,,,,,582.0604953150032,55,hands-40.jpg,AC,1,vpnl,2023-11-16_21h08.22.391,longbabyloc,2023.2.2,59.961477626392146,
,,,,,,,,582.5600733410101,56,faces-33.jpg,AC,1,vpnl,2023-11-16_21h08.22.391,longbabyloc,2023.2.2,59.961477626392146,
,,,,,,,,583.0602571370109,56,faces-34.jpg,AC,1,vpnl,2023-11-16_21h08.22.391,longbabyloc,2023.2.2,59.961477626392146,
,,,,,,,,583.560429426012,56,faces-35.jpg,AC,1,vpnl,2023-11-16_21h08.22.391,longbabyloc,2023.2.2,59.961477626392146,
,,,,,,,,584.0604216980137,56,faces-36.jpg,AC,1,vpnl,2023-11-16_21h08.22.391,longbabyloc,2023.2.2,59.961477626392146,
,,,,,,,,584.5600489350036,56,faces-37.jpg,AC,1,vpnl,2023-11-16_21h08.22.391,longbabyloc,2023.2.2,59.961477626392146,
,,,,,,,,585.0603044390009,56,faces-38.jpg,AC,1,vpnl,2023-11-16_21h08.22.391,longbabyloc,2023.2.2,59.961477626392146,
,,,,,,,,585.5606622510095,56,faces-39.jpg,AC,1,vpnl,2023-11-16_21h08.22.391,longbabyloc,2023.2.2,59.961477626392146,
,,,,,,,,586.0602403810044,56,faces-40.jpg,AC,1,vpnl,2023-11-16_21h08.22.391,longbabyloc,2023.2.2,59.961477626392146,
,,,,,,,,586.5600290600123,57,cars-41.jpg,AC,1,vpnl,2023-11-16_21h08.22.391,longbabyloc,2023.2.2,59.961477626392146,
,,,,,,,,587.0602581420098,57,cars-42.jpg,AC,1,vpnl,2023-11-16_21h08.22.391,longbabyloc,2023.2.2,59.961477626392146,
,,,,,,,,587.5603717920021,57,cars-43.jpg,AC,1,vpnl,2023-11-16_21h08.22.391,longbabyloc,2023.2.2,59.961477626392146,
,,,,,,,,588.0601309040067,57,cars-44.jpg,AC,1,vpnl,2023-11-16_21h08.22.391,longbabyloc,2023.2.2,59.961477626392146,
,,,,,,,,588.5635633170023,57,cars-45.jpg,AC,1,vpnl,2023-11-16_21h08.22.391,longbabyloc,2023.2.2,59.961477626392146,
,,,,,,,,589.0602588430047,57,cars-46.jpg,AC,1,vpnl,2023-11-16_21h08.22.391,longbabyloc,2023.2.2,59.961477626392146,
,,,,,,,,589.5604309300106,57,cars-47.jpg,AC,1,vpnl,2023-11-16_21h08.22.391,longbabyloc,2023.2.2,59.961477626392146,
,,,,,,,,590.0603015280067,57,cars-48.jpg,AC,1,vpnl,2023-11-16_21h08.22.391,longbabyloc,2023.2.2,59.961477626392146,
,,,,,,,,590.5599065760034,58,faces-41.jpg,AC,1,vpnl,2023-11-16_21h08.22.391,longbabyloc,2023.2.2,59.961477626392146,
,,,,,,,,591.0602567950118,58,faces-42.jpg,AC,1,vpnl,2023-11-16_21h08.22.391,longbabyloc,2023.2.2,59.961477626392146,
,,,,,,,,591.5605280360032,58,faces-43.jpg,AC,1,vpnl,2023-11-16_21h08.22.391,longbabyloc,2023.2.2,59.961477626392146,
,,,,,,,,592.0600616709999,58,faces-44.jpg,AC,1,vpnl,2023-11-16_21h08.22.391,longbabyloc,2023.2.2,59.961477626392146,
,,,,,,,,592.5599946600123,58,faces-45.jpg,AC,1,vpnl,2023-11-16_21h08.22.391,longbabyloc,2023.2.2,59.961477626392146,
,,,,,,,,593.0607381950103,58,faces-46.jpg,AC,1,vpnl,2023-11-16_21h08.22.391,longbabyloc,2023.2.2,59.961477626392146,
,,,,,,,,593.5602880900115,58,faces-47.jpg,AC,1,vpnl,2023-11-16_21h08.22.391,longbabyloc,2023.2.2,59.961477626392146,
,,,,,,,,594.0600750970043,58,faces-48.jpg,AC,1,vpnl,2023-11-16_21h08.22.391,longbabyloc,2023.2.2,59.961477626392146,
,,,,,,,,594.5600614540017,59,hands-41.jpg,AC,1,vpnl,2023-11-16_21h08.22.391,longbabyloc,2023.2.2,59.961477626392146,
,,,,,,,,595.060161913003,59,hands-42.jpg,AC,1,vpnl,2023-11-16_21h08.22.391,longbabyloc,2023.2.2,59.961477626392146,
,,,,,,,,595.5601579460053,59,hands-43.jpg,AC,1,vpnl,2023-11-16_21h08.22.391,longbabyloc,2023.2.2,59.961477626392146,
,,,,,,,,596.0601241730037,59,hands-44.jpg,AC,1,vpnl,2023-11-16_21h08.22.391,longbabyloc,2023.2.2,59.961477626392146,
,,,,,,,,596.5598066720122,59,hands-45.jpg,AC,1,vpnl,2023-11-16_21h08.22.391,longbabyloc,2023.2.2,59.961477626392146,
,,,,,,,,597.0600627720123,59,hands-46.jpg,AC,1,vpnl,2023-11-16_21h08.22.391,longbabyloc,2023.2.2,59.961477626392146,
,,,,,,,,597.5604387080093,59,hands-47.jpg,AC,1,vpnl,2023-11-16_21h08.22.391,longbabyloc,2023.2.2,59.961477626392146,
,,,,,,,,598.0598476590094,59,hands-48.jpg,AC,1,vpnl,2023-11-16_21h08.22.391,longbabyloc,2023.2.2,59.961477626392146,
,,,,,,,,598.5597860240086,60,scenes-41.jpg,AC,1,vpnl,2023-11-16_21h08.22.391,longbabyloc,2023.2.2,59.961477626392146,
,,,,,,,,599.0599780450138,60,scenes-42.jpg,AC,1,vpnl,2023-11-16_21h08.22.391,longbabyloc,2023.2.2,59.961477626392146,
,,,,,,,,599.5601247430022,60,scenes-43.jpg,AC,1,vpnl,2023-11-16_21h08.22.391,longbabyloc,2023.2.2,59.961477626392146,
,,,,,,,,600.0599140990089,60,scenes-44.jpg,AC,1,vpnl,2023-11-16_21h08.22.391,longbabyloc,2023.2.2,59.961477626392146,
,,,,,,,,600.5634889100038,60,scenes-45.jpg,AC,1,vpnl,2023-11-16_21h08.22.391,longbabyloc,2023.2.2,59.961477626392146,
,,,,,,,,601.060406871009,60,scenes-46.jpg,AC,1,vpnl,2023-11-16_21h08.22.391,longbabyloc,2023.2.2,59.961477626392146,
,,,,,,,,601.560173173013,60,scenes-47.jpg,AC,1,vpnl,2023-11-16_21h08.22.391,longbabyloc,2023.2.2,59.961477626392146,
,,,,,,,,602.0599779640033,60,scenes-48.jpg,AC,1,vpnl,2023-11-16_21h08.22.391,longbabyloc,2023.2.2,59.961477626392146,
,,,,,,,,602.5597008930054,61,blank-49.jpg,AC,1,vpnl,2023-11-16_21h08.22.391,longbabyloc,2023.2.2,59.961477626392146,
,,,,,,,,603.0600419490074,61,blank-50.jpg,AC,1,vpnl,2023-11-16_21h08.22.391,longbabyloc,2023.2.2,59.961477626392146,
,,,,,,,,603.5603794490016,61,blank-51.jpg,AC,1,vpnl,2023-11-16_21h08.22.391,longbabyloc,2023.2.2,59.961477626392146,
,,,,,,,,604.0598371200031,61,blank-52.jpg,AC,1,vpnl,2023-11-16_21h08.22.391,longbabyloc,2023.2.2,59.961477626392146,
,,,,,,,,604.5596644490142,61,blank-53.jpg,AC,1,vpnl,2023-11-16_21h08.22.391,longbabyloc,2023.2.2,59.961477626392146,
,,,,,,,,605.0598880480102,61,blank-54.jpg,AC,1,vpnl,2023-11-16_21h08.22.391,longbabyloc,2023.2.2,59.961477626392146,
,,,,,,,,605.5601496040035,61,blank-55.jpg,AC,1,vpnl,2023-11-16_21h08.22.391,longbabyloc,2023.2.2,59.961477626392146,
,,,,,,,,606.060022206002,61,blank-56.jpg,AC,1,vpnl,2023-11-16_21h08.22.391,longbabyloc,2023.2.2,59.961477626392146,
,,,,,,,,606.5597219820047,62,blank-57.jpg,AC,1,vpnl,2023-11-16_21h08.22.391,longbabyloc,2023.2.2,59.961477626392146,
,,,,,,,,607.0599064350099,62,blank-58.jpg,AC,1,vpnl,2023-11-16_21h08.22.391,longbabyloc,2023.2.2,59.961477626392146,
,,,,,,,,607.5599843050004,62,blank-59.jpg,AC,1,vpnl,2023-11-16_21h08.22.391,longbabyloc,2023.2.2,59.961477626392146,
,,,,,,,,608.059862596012,62,blank-60.jpg,AC,1,vpnl,2023-11-16_21h08.22.391,longbabyloc,2023.2.2,59.961477626392146,
,,,,,,,,608.5596581420104,62,blank-61.jpg,AC,1,vpnl,2023-11-16_21h08.22.391,longbabyloc,2023.2.2,59.961477626392146,
,,,,,,,,609.0597823850112,62,blank-62.jpg,AC,1,vpnl,2023-11-16_21h08.22.391,longbabyloc,2023.2.2,59.961477626392146,
,,,,,,,,609.5601261310076,62,blank-63.jpg,AC,1,vpnl,2023-11-16_21h08.22.391,longbabyloc,2023.2.2,59.961477626392146,
,,,,,,,,610.0597756590141,62,blank-64.jpg,AC,1,vpnl,2023-11-16_21h08.22.391,longbabyloc,2023.2.2,59.961477626392146,
