thisRow.t,notes,waiting_for_trigger_text.started,trigger.started,trigger.keys,trigger.rt,countdown.started,trial.stopped,stimuli.started,condition,stim_name,stimuli.stopped,participant,run,user,date,expName,psychopyVersion,frameRate,
,,46.95261491900601,46.95261491900601,t,8.333692133994191,,,,,,,AC,1,vpnl,2023-11-16_21h08.22.391,longbabyloc,2023.2.2,59.961477626392146,
,,,,,,55.32251222000923,14.371949884996866,61.32428435700422,1,blank-1.jpg,,AC,1,vpnl,2023-11-16_21h08.22.391,longbabyloc,2023.2.2,59.961477626392146,
,,,,,,,,61.82424147200072,1,blank-2.jpg,,AC,1,vpnl,2023-11-16_21h08.22.391,longbabyloc,2023.2.2,59.961477626392146,
,,,,,,,,62.32342342300399,1,blank-3.jpg,,AC,1,vpnl,2023-11-16_21h08.22.391,longbabyloc,2023.2.2,59.961477626392146,
,,,,,,,,62.82358099000703,1,blank-4.jpg,,AC,1,vpnl,2023-11-16_21h08.22.391,longbabyloc,2023.2.2,59.961477626392146,
,,,,,,,,63.320308877009666,1,blank-5.jpg,,AC,1,vpnl,2023-11-16_21h08.22.391,longbabyloc,2023.2.2,59.961477626392146,
,,,,,,,,63.819725477005704,1,blank-6.jpg,,AC,1,vpnl,2023-11-16_21h08.22.391,longbabyloc,2023.2.2,59.961477626392146,
,,,,,,,,64.32029621700349,1,blank-7.jpg,,AC,1,vpnl,2023-11-16_21h08.22.391,longbabyloc,2023.2.2,59.961477626392146,
,,,,,,,,64.82011558501108,1,blank-8.jpg,,AC,1,vpnl,2023-11-16_21h08.22.391,longbabyloc,2023.2.2,59.961477626392146,
,,,,,,,,65.3201860130066,2,blank-9.jpg,,AC,1,vpnl,2023-11-16_21h08.22.391,longbabyloc,2023.2.2,59.961477626392146,
,,,,,,,,65.82027610900695,2,blank-10.jpg,,AC,1,vpnl,2023-11-16_21h08.22.391,longbabyloc,2023.2.2,59.961477626392146,
,,,,,,,,66.31982428900665,2,blank-11.jpg,66.81978945100855,AC,1,vpnl,2023-11-16_21h08.22.391,longbabyloc,2023.2.2,59.961477626392146,
,,,,,,,,66.81978945100855,2,blank-12.jpg,67.3199175720074,AC,1,vpnl,2023-11-16_21h08.22.391,longbabyloc,2023.2.2,59.961477626392146,
,,,,,,,,67.3199175720074,2,blank-13.jpg,67.8197830630088,AC,1,vpnl,2023-11-16_21h08.22.391,longbabyloc,2023.2.2,59.961477626392146,
,,,,,,,,67.8197830630088,2,blank-14.jpg,68.31973299400124,AC,1,vpnl,2023-11-16_21h08.22.391,longbabyloc,2023.2.2,59.961477626392146,
,,,,,,,,68.31973299400124,2,blank-15.jpg,68.81979829000193,AC,1,vpnl,2023-11-16_21h08.22.391,longbabyloc,2023.2.2,59.961477626392146,
,,,,,,,,68.81979829000193,2,blank-16.jpg,69.31980325300538,AC,1,vpnl,2023-11-16_21h08.22.391,longbabyloc,2023.2.2,59.961477626392146,
,,,,,,,,69.31980325300538,3,scenes-1.jpg,69.81997613400745,AC,1,vpnl,2023-11-16_21h08.22.391,longbabyloc,2023.2.2,59.961477626392146,
,,,,,,,,69.81997613400745,3,scenes-2.jpg,,AC,1,vpnl,2023-11-16_21h08.22.391,longbabyloc,2023.2.2,59.961477626392146,
,,,,,,,,70.31963996001286,3,scenes-3.jpg,,AC,1,vpnl,2023-11-16_21h08.22.391,longbabyloc,2023.2.2,59.961477626392146,
,,,,,,,,70.81989467600943,3,scenes-4.jpg,71.31975286001398,AC,1,vpnl,2023-11-16_21h08.22.391,longbabyloc,2023.2.2,59.961477626392146,
,,,,,,,,71.31975286001398,3,scenes-5.jpg,71.81982722300745,AC,1,vpnl,2023-11-16_21h08.22.391,longbabyloc,2023.2.2,59.961477626392146,
,,,,,,,,71.81982722300745,3,scenes-6.jpg,72.31973513601406,AC,1,vpnl,2023-11-16_21h08.22.391,longbabyloc,2023.2.2,59.961477626392146,
,,,,,,,,72.31973513601406,3,scenes-7.jpg,,AC,1,vpnl,2023-11-16_21h08.22.391,longbabyloc,2023.2.2,59.961477626392146,
,,,,,,,,72.81984001400997,3,scenes-8.jpg,73.31980843900237,AC,1,vpnl,2023-11-16_21h08.22.391,longbabyloc,2023.2.2,59.961477626392146,
,,,,,,,,73.31980843900237,4,hands-1.jpg,,AC,1,vpnl,2023-11-16_21h08.22.391,longbabyloc,2023.2.2,59.961477626392146,
,,,,,,,,73.81974731700029,4,hands-2.jpg,,AC,1,vpnl,2023-11-16_21h08.22.391,longbabyloc,2023.2.2,59.961477626392146,
,,,,,,,,74.31977225201263,4,hands-3.jpg,74.81977206400188,AC,1,vpnl,2023-11-16_21h08.22.391,longbabyloc,2023.2.2,59.961477626392146,
,,,,,,,,74.81977206400188,4,hands-4.jpg,75.31975236200378,AC,1,vpnl,2023-11-16_21h08.22.391,longbabyloc,2023.2.2,59.961477626392146,
,,,,,,,,75.31975236200378,4,hands-5.jpg,75.81964741001138,AC,1,vpnl,2023-11-16_21h08.22.391,longbabyloc,2023.2.2,59.961477626392146,
,,,,,,,,75.81964741001138,4,hands-6.jpg,76.31970761601406,AC,1,vpnl,2023-11-16_21h08.22.391,longbabyloc,2023.2.2,59.961477626392146,
,,,,,,,,76.31970761601406,4,hands-7.jpg,76.81945564300986,AC,1,vpnl,2023-11-16_21h08.22.391,longbabyloc,2023.2.2,59.961477626392146,
,,,,,,,,76.81945564300986,4,hands-8.jpg,77.32004095800221,AC,1,vpnl,2023-11-16_21h08.22.391,longbabyloc,2023.2.2,59.961477626392146,
,,,,,,,,77.32004095800221,5,cars-1.jpg,77.81979254200996,AC,1,vpnl,2023-11-16_21h08.22.391,longbabyloc,2023.2.2,59.961477626392146,
,,,,,,,,77.81979254200996,5,cars-2.jpg,78.31963045800512,AC,1,vpnl,2023-11-16_21h08.22.391,longbabyloc,2023.2.2,59.961477626392146,
,,,,,,,,78.31963045800512,5,cars-3.jpg,78.81955012801336,AC,1,vpnl,2023-11-16_21h08.22.391,longbabyloc,2023.2.2,59.961477626392146,
,,,,,,,,78.81955012801336,5,cars-4.jpg,79.31971374500426,AC,1,vpnl,2023-11-16_21h08.22.391,longbabyloc,2023.2.2,59.961477626392146,
,,,,,,,,79.31971374500426,5,cars-5.jpg,79.81962728500366,AC,1,vpnl,2023-11-16_21h08.22.391,longbabyloc,2023.2.2,59.961477626392146,
,,,,,,,,79.81962728500366,5,cars-6.jpg,80.31957653300196,AC,1,vpnl,2023-11-16_21h08.22.391,longbabyloc,2023.2.2,59.961477626392146,
,,,,,,,,80.31957653300196,5,cars-7.jpg,80.81965107101132,AC,1,vpnl,2023-11-16_21h08.22.391,longbabyloc,2023.2.2,59.961477626392146,
,,,,,,,,80.81965107101132,5,cars-8.jpg,81.319669746008,AC,1,vpnl,2023-11-16_21h08.22.391,longbabyloc,2023.2.2,59.961477626392146,
,,,,,,,,81.319669746008,6,faces-1.jpg,81.8196388810029,AC,1,vpnl,2023-11-16_21h08.22.391,longbabyloc,2023.2.2,59.961477626392146,
,,,,,,,,81.8196388810029,6,faces-2.jpg,82.31947979600227,AC,1,vpnl,2023-11-16_21h08.22.391,longbabyloc,2023.2.2,59.961477626392146,
,,,,,,,,82.31947979600227,6,faces-3.jpg,82.81953069500742,AC,1,vpnl,2023-11-16_21h08.22.391,longbabyloc,2023.2.2,59.961477626392146,
,,,,,,,,82.81953069500742,6,faces-4.jpg,83.31951217600727,AC,1,vpnl,2023-11-16_21h08.22.391,longbabyloc,2023.2.2,59.961477626392146,
,,,,,,,,83.31951217600727,6,faces-5.jpg,83.8194472680043,AC,1,vpnl,2023-11-16_21h08.22.391,longbabyloc,2023.2.2,59.961477626392146,
,,,,,,,,83.8194472680043,6,faces-6.jpg,84.31950769301329,AC,1,vpnl,2023-11-16_21h08.22.391,longbabyloc,2023.2.2,59.961477626392146,
,,,,,,,,84.31950769301329,6,faces-7.jpg,84.81957166700158,AC,1,vpnl,2023-11-16_21h08.22.391,longbabyloc,2023.2.2,59.961477626392146,
,,,,,,,,84.81957166700158,6,faces-8.jpg,85.31971714200336,AC,1,vpnl,2023-11-16_21h08.22.391,longbabyloc,2023.2.2,59.961477626392146,
,,,,,,,,85.31971714200336,7,scenes-9.jpg,85.8193832370016,AC,1,vpnl,2023-11-16_21h08.22.391,longbabyloc,2023.2.2,59.961477626392146,
,,,,,,,,85.8193832370016,7,scenes-10.jpg,86.3196217270015,AC,1,vpnl,2023-11-16_21h08.22.391,longbabyloc,2023.2.2,59.961477626392146,
,,,,,,,,86.3196217270015,7,scenes-11.jpg,86.81933227500122,AC,1,vpnl,2023-11-16_21h08.22.391,longbabyloc,2023.2.2,59.961477626392146,
,,,,,,,,86.81933227500122,7,scenes-12.jpg,87.31948919100978,AC,1,vpnl,2023-11-16_21h08.22.391,longbabyloc,2023.2.2,59.961477626392146,
,,,,,,,,87.31948919100978,7,scenes-13.jpg,87.81946455599973,AC,1,vpnl,2023-11-16_21h08.22.391,longbabyloc,2023.2.2,59.961477626392146,
,,,,,,,,87.81946455599973,7,scenes-14.jpg,88.31939910700021,AC,1,vpnl,2023-11-16_21h08.22.391,longbabyloc,2023.2.2,59.961477626392146,
,,,,,,,,88.31939910700021,7,scenes-15.jpg,88.81969138400746,AC,1,vpnl,2023-11-16_21h08.22.391,longbabyloc,2023.2.2,59.961477626392146,
,,,,,,,,88.81969138400746,7,scenes-16.jpg,89.319645511001,AC,1,vpnl,2023-11-16_21h08.22.391,longbabyloc,2023.2.2,59.961477626392146,
,,,,,,,,89.319645511001,8,faces-9.jpg,89.81961247599975,AC,1,vpnl,2023-11-16_21h08.22.391,longbabyloc,2023.2.2,59.961477626392146,
,,,,,,,,89.81961247599975,8,faces-10.jpg,90.31954360801319,AC,1,vpnl,2023-11-16_21h08.22.391,longbabyloc,2023.2.2,59.961477626392146,
,,,,,,,,90.31954360801319,8,faces-11.jpg,90.81950760100153,AC,1,vpnl,2023-11-16_21h08.22.391,longbabyloc,2023.2.2,59.961477626392146,
,,,,,,,,90.81950760100153,8,faces-12.jpg,91.31953664800676,AC,1,vpnl,2023-11-16_21h08.22.391,longbabyloc,2023.2.2,59.961477626392146,
,,,,,,,,91.31953664800676,8,faces-13.jpg,91.81937916000606,AC,1,vpnl,2023-11-16_21h08.22.391,longbabyloc,2023.2.2,59.961477626392146,
,,,,,,,,91.81937916000606,8,faces-14.jpg,92.31942107400391,AC,1,vpnl,2023-11-16_21h08.22.391,longbabyloc,2023.2.2,59.961477626392146,
,,,,,,,,92.31942107400391,8,faces-15.jpg,92.81937934301095,AC,1,vpnl,2023-11-16_21h08.22.391,longbabyloc,2023.2.2,59.961477626392146,
,,,,,,,,92.81937934301095,8,faces-16.jpg,93.31937138701323,AC,1,vpnl,2023-11-16_21h08.22.391,longbabyloc,2023.2.2,59.961477626392146,
,,,,,,,,93.31937138701323,9,hands-9.jpg,93.81939549501112,AC,1,vpnl,2023-11-16_21h08.22.391,longbabyloc,2023.2.2,59.961477626392146,
,,,,,,,,93.81939549501112,9,hands-10.jpg,94.31933929600928,AC,1,vpnl,2023-11-16_21h08.22.391,longbabyloc,2023.2.2,59.961477626392146,
,,,,,,,,94.31933929600928,9,hands-11.jpg,94.81932134400995,AC,1,vpnl,2023-11-16_21h08.22.391,longbabyloc,2023.2.2,59.961477626392146,
,,,,,,,,94.81932134400995,9,hands-12.jpg,95.31937264600128,AC,1,vpnl,2023-11-16_21h08.22.391,longbabyloc,2023.2.2,59.961477626392146,
,,,,,,,,95.31937264600128,9,hands-13.jpg,95.81937964700046,AC,1,vpnl,2023-11-16_21h08.22.391,longbabyloc,2023.2.2,59.961477626392146,
,,,,,,,,95.81937964700046,9,hands-14.jpg,96.31946205500572,AC,1,vpnl,2023-11-16_21h08.22.391,longbabyloc,2023.2.2,59.961477626392146,
,,,,,,,,96.31946205500572,9,hands-15.jpg,96.81932455500646,AC,1,vpnl,2023-11-16_21h08.22.391,longbabyloc,2023.2.2,59.961477626392146,
,,,,,,,,96.81932455500646,9,hands-16.jpg,97.31934447301319,AC,1,vpnl,2023-11-16_21h08.22.391,longbabyloc,2023.2.2,59.961477626392146,
,,,,,,,,97.31934447301319,10,blank-17.jpg,97.81941447700956,AC,1,vpnl,2023-11-16_21h08.22.391,longbabyloc,2023.2.2,59.961477626392146,
,,,,,,,,97.81941447700956,10,blank-18.jpg,98.31942637701286,AC,1,vpnl,2023-11-16_21h08.22.391,longbabyloc,2023.2.2,59.961477626392146,
,,,,,,,,98.31942637701286,10,blank-19.jpg,98.81941573800577,AC,1,vpnl,2023-11-16_21h08.22.391,longbabyloc,2023.2.2,59.961477626392146,
,,,,,,,,98.81941573800577,10,blank-20.jpg,99.31946276500821,AC,1,vpnl,2023-11-16_21h08.22.391,longbabyloc,2023.2.2,59.961477626392146,
,,,,,,,,99.31946276500821,10,blank-21.jpg,99.81922650701017,AC,1,vpnl,2023-11-16_21h08.22.391,longbabyloc,2023.2.2,59.961477626392146,
,,,,,,,,99.81922650701017,10,blank-22.jpg,100.31918280200625,AC,1,vpnl,2023-11-16_21h08.22.391,longbabyloc,2023.2.2,59.961477626392146,
,,,,,,,,100.31918280200625,10,blank-23.jpg,100.81893434500671,AC,1,vpnl,2023-11-16_21h08.22.391,longbabyloc,2023.2.2,59.961477626392146,
,,,,,,,,100.81893434500671,10,blank-24.jpg,101.31933194400335,AC,1,vpnl,2023-11-16_21h08.22.391,longbabyloc,2023.2.2,59.961477626392146,
,,,,,,,,101.31933194400335,11,cars-9.jpg,101.82740134700725,AC,1,vpnl,2023-11-16_21h08.22.391,longbabyloc,2023.2.2,59.961477626392146,
,,,,,,,,101.82740134700725,11,cars-10.jpg,,AC,1,vpnl,2023-11-16_21h08.22.391,longbabyloc,2023.2.2,59.961477626392146,
,,,,,,,,102.33591574900493,11,cars-11.jpg,,AC,1,vpnl,2023-11-16_21h08.22.391,longbabyloc,2023.2.2,59.961477626392146,
,,,,,,,,102.83585324400337,11,cars-12.jpg,,AC,1,vpnl,2023-11-16_21h08.22.391,longbabyloc,2023.2.2,59.961477626392146,
,,,,,,,,103.33584125000925,11,cars-13.jpg,,AC,1,vpnl,2023-11-16_21h08.22.391,longbabyloc,2023.2.2,59.961477626392146,
,,,,,,,,103.83584727400739,11,cars-14.jpg,,AC,1,vpnl,2023-11-16_21h08.22.391,longbabyloc,2023.2.2,59.961477626392146,
,,,,,,,,104.33574185300677,11,cars-15.jpg,,AC,1,vpnl,2023-11-16_21h08.22.391,longbabyloc,2023.2.2,59.961477626392146,
,,,,,,,,104.83572582800116,11,cars-16.jpg,,AC,1,vpnl,2023-11-16_21h08.22.391,longbabyloc,2023.2.2,59.961477626392146,
,,,,,,,,105.33584011500352,12,faces-17.jpg,,AC,1,vpnl,2023-11-16_21h08.22.391,longbabyloc,2023.2.2,59.961477626392146,
,,,,,,,,105.83584025301388,12,faces-18.jpg,,AC,1,vpnl,2023-11-16_21h08.22.391,longbabyloc,2023.2.2,59.961477626392146,
,,,,,,,,106.33583232501405,12,faces-19.jpg,,AC,1,vpnl,2023-11-16_21h08.22.391,longbabyloc,2023.2.2,59.961477626392146,
,,,,,,,,106.83565513401118,12,faces-20.jpg,,AC,1,vpnl,2023-11-16_21h08.22.391,longbabyloc,2023.2.2,59.961477626392146,
,,,,,,,,107.33577691900427,12,faces-21.jpg,,AC,1,vpnl,2023-11-16_21h08.22.391,longbabyloc,2023.2.2,59.961477626392146,
,,,,,,,,107.8357589590014,12,faces-22.jpg,,AC,1,vpnl,2023-11-16_21h08.22.391,longbabyloc,2023.2.2,59.961477626392146,
,,,,,,,,108.3356617840036,12,faces-23.jpg,,AC,1,vpnl,2023-11-16_21h08.22.391,longbabyloc,2023.2.2,59.961477626392146,
,,,,,,,,108.83565315400483,12,faces-24.jpg,,AC,1,vpnl,2023-11-16_21h08.22.391,longbabyloc,2023.2.2,59.961477626392146,
,,,,,,,,109.33574924500135,13,hands-17.jpg,,AC,1,vpnl,2023-11-16_21h08.22.391,longbabyloc,2023.2.2,59.961477626392146,
,,,,,,,,109.83572536001157,13,hands-18.jpg,,AC,1,vpnl,2023-11-16_21h08.22.391,longbabyloc,2023.2.2,59.961477626392146,
,,,,,,,,110.33571928400488,13,hands-19.jpg,,AC,1,vpnl,2023-11-16_21h08.22.391,longbabyloc,2023.2.2,59.961477626392146,
,,,,,,,,110.83567043801304,13,hands-20.jpg,,AC,1,vpnl,2023-11-16_21h08.22.391,longbabyloc,2023.2.2,59.961477626392146,
,,,,,,,,111.33566773601342,13,hands-21.jpg,,AC,1,vpnl,2023-11-16_21h08.22.391,longbabyloc,2023.2.2,59.961477626392146,
,,,,,,,,111.83585096600291,13,hands-22.jpg,,AC,1,vpnl,2023-11-16_21h08.22.391,longbabyloc,2023.2.2,59.961477626392146,
,,,,,,,,112.33566383100697,13,hands-23.jpg,,AC,1,vpnl,2023-11-16_21h08.22.391,longbabyloc,2023.2.2,59.961477626392146,
,,,,,,,,112.83571003100951,13,hands-24.jpg,,AC,1,vpnl,2023-11-16_21h08.22.391,longbabyloc,2023.2.2,59.961477626392146,
,,,,,,,,113.33565776901378,14,scenes-17.jpg,,AC,1,vpnl,2023-11-16_21h08.22.391,longbabyloc,2023.2.2,59.961477626392146,
,,,,,,,,113.83569318600348,14,scenes-18.jpg,,AC,1,vpnl,2023-11-16_21h08.22.391,longbabyloc,2023.2.2,59.961477626392146,
,,,,,,,,114.33582313600346,14,scenes-19.jpg,,AC,1,vpnl,2023-11-16_21h08.22.391,longbabyloc,2023.2.2,59.961477626392146,
,,,,,,,,114.83588436100399,14,scenes-20.jpg,,AC,1,vpnl,2023-11-16_21h08.22.391,longbabyloc,2023.2.2,59.961477626392146,
,,,,,,,,115.3357773470052,14,scenes-21.jpg,,AC,1,vpnl,2023-11-16_21h08.22.391,longbabyloc,2023.2.2,59.961477626392146,
,,,,,,,,115.8358520410111,14,scenes-22.jpg,,AC,1,vpnl,2023-11-16_21h08.22.391,longbabyloc,2023.2.2,59.961477626392146,
,,,,,,,,116.33547270100098,14,scenes-23.jpg,,AC,1,vpnl,2023-11-16_21h08.22.391,longbabyloc,2023.2.2,59.961477626392146,
,,,,,,,,116.83570613600023,14,scenes-24.jpg,,AC,1,vpnl,2023-11-16_21h08.22.391,longbabyloc,2023.2.2,59.961477626392146,
,,,,,,,,117.33562282301136,15,cars-17.jpg,,AC,1,vpnl,2023-11-16_21h08.22.391,longbabyloc,2023.2.2,59.961477626392146,
,,,,,,,,117.83573988400167,15,cars-18.jpg,,AC,1,vpnl,2023-11-16_21h08.22.391,longbabyloc,2023.2.2,59.961477626392146,
,,,,,,,,118.33553096900869,15,cars-19.jpg,,AC,1,vpnl,2023-11-16_21h08.22.391,longbabyloc,2023.2.2,59.961477626392146,
,,,,,,,,118.835361053003,15,cars-20.jpg,,AC,1,vpnl,2023-11-16_21h08.22.391,longbabyloc,2023.2.2,59.961477626392146,
,,,,,,,,119.3355594050081,15,cars-21.jpg,,AC,1,vpnl,2023-11-16_21h08.22.391,longbabyloc,2023.2.2,59.961477626392146,
,,,,,,,,119.83556525000313,15,cars-22.jpg,,AC,1,vpnl,2023-11-16_21h08.22.391,longbabyloc,2023.2.2,59.961477626392146,
,,,,,,,,120.33552184401196,15,cars-23.jpg,,AC,1,vpnl,2023-11-16_21h08.22.391,longbabyloc,2023.2.2,59.961477626392146,
,,,,,,,,120.83564257201215,15,cars-24.jpg,,AC,1,vpnl,2023-11-16_21h08.22.391,longbabyloc,2023.2.2,59.961477626392146,
,,,,,,,,121.33546637800464,16,blank-25.jpg,,AC,1,vpnl,2023-11-16_21h08.22.391,longbabyloc,2023.2.2,59.961477626392146,
,,,,,,,,121.83556889501051,16,blank-26.jpg,,AC,1,vpnl,2023-11-16_21h08.22.391,longbabyloc,2023.2.2,59.961477626392146,
,,,,,,,,122.33558336700662,16,blank-27.jpg,,AC,1,vpnl,2023-11-16_21h08.22.391,longbabyloc,2023.2.2,59.961477626392146,
,,,,,,,,122.83541547901405,16,blank-28.jpg,,AC,1,vpnl,2023-11-16_21h08.22.391,longbabyloc,2023.2.2,59.961477626392146,
,,,,,,,,123.3356444210076,16,blank-29.jpg,,AC,1,vpnl,2023-11-16_21h08.22.391,longbabyloc,2023.2.2,59.961477626392146,
,,,,,,,,123.83535379001114,16,blank-30.jpg,,AC,1,vpnl,2023-11-16_21h08.22.391,longbabyloc,2023.2.2,59.961477626392146,
,,,,,,,,124.33544036801322,16,blank-31.jpg,,AC,1,vpnl,2023-11-16_21h08.22.391,longbabyloc,2023.2.2,59.961477626392146,
,,,,,,,,124.83551449600782,16,blank-32.jpg,,AC,1,vpnl,2023-11-16_21h08.22.391,longbabyloc,2023.2.2,59.961477626392146,
,,,,,,,,125.33543357600865,17,scenes-25.jpg,,AC,1,vpnl,2023-11-16_21h08.22.391,longbabyloc,2023.2.2,59.961477626392146,
,,,,,,,,125.83542493300047,17,scenes-26.jpg,,AC,1,vpnl,2023-11-16_21h08.22.391,longbabyloc,2023.2.2,59.961477626392146,
,,,,,,,,126.3354935330135,17,scenes-27.jpg,,AC,1,vpnl,2023-11-16_21h08.22.391,longbabyloc,2023.2.2,59.961477626392146,
,,,,,,,,126.83535284601385,17,scenes-28.jpg,,AC,1,vpnl,2023-11-16_21h08.22.391,longbabyloc,2023.2.2,59.961477626392146,
,,,,,,,,127.33544095500838,17,scenes-29.jpg,,AC,1,vpnl,2023-11-16_21h08.22.391,longbabyloc,2023.2.2,59.961477626392146,
,,,,,,,,127.83552855800372,17,scenes-30.jpg,,AC,1,vpnl,2023-11-16_21h08.22.391,longbabyloc,2023.2.2,59.961477626392146,
,,,,,,,,128.33542508601386,17,scenes-31.jpg,,AC,1,vpnl,2023-11-16_21h08.22.391,longbabyloc,2023.2.2,59.961477626392146,
,,,,,,,,128.83548905901262,17,scenes-32.jpg,,AC,1,vpnl,2023-11-16_21h08.22.391,longbabyloc,2023.2.2,59.961477626392146,
,,,,,,,,129.3354312460142,18,cars-25.jpg,,AC,1,vpnl,2023-11-16_21h08.22.391,longbabyloc,2023.2.2,59.961477626392146,
,,,,,,,,129.8354593430122,18,cars-26.jpg,,AC,1,vpnl,2023-11-16_21h08.22.391,longbabyloc,2023.2.2,59.961477626392146,
,,,,,,,,130.33524952101288,18,cars-27.jpg,,AC,1,vpnl,2023-11-16_21h08.22.391,longbabyloc,2023.2.2,59.961477626392146,
,,,,,,,,130.8353935040068,18,cars-28.jpg,,AC,1,vpnl,2023-11-16_21h08.22.391,longbabyloc,2023.2.2,59.961477626392146,
,,,,,,,,131.33541406001314,18,cars-29.jpg,,AC,1,vpnl,2023-11-16_21h08.22.391,longbabyloc,2023.2.2,59.961477626392146,
,,,,,,,,131.8353320390015,18,cars-30.jpg,,AC,1,vpnl,2023-11-16_21h08.22.391,longbabyloc,2023.2.2,59.961477626392146,
,,,,,,,,132.3353234690003,18,cars-31.jpg,,AC,1,vpnl,2023-11-16_21h08.22.391,longbabyloc,2023.2.2,59.961477626392146,
,,,,,,,,132.83539311800268,18,cars-32.jpg,,AC,1,vpnl,2023-11-16_21h08.22.391,longbabyloc,2023.2.2,59.961477626392146,
,,,,,,,,133.3354006150039,19,faces-25.jpg,,AC,1,vpnl,2023-11-16_21h08.22.391,longbabyloc,2023.2.2,59.961477626392146,
,,,,,,,,133.83545733601204,19,faces-26.jpg,,AC,1,vpnl,2023-11-16_21h08.22.391,longbabyloc,2023.2.2,59.961477626392146,
,,,,,,,,134.33538615400903,19,faces-27.jpg,,AC,1,vpnl,2023-11-16_21h08.22.391,longbabyloc,2023.2.2,59.961477626392146,
,,,,,,,,134.83491456900083,19,faces-28.jpg,,AC,1,vpnl,2023-11-16_21h08.22.391,longbabyloc,2023.2.2,59.961477626392146,
,,,,,,,,135.3354623740015,19,faces-29.jpg,,AC,1,vpnl,2023-11-16_21h08.22.391,longbabyloc,2023.2.2,59.961477626392146,
,,,,,,,,135.83752345200628,19,faces-30.jpg,,AC,1,vpnl,2023-11-16_21h08.22.391,longbabyloc,2023.2.2,59.961477626392146,
,,,,,,,,136.33523145801155,19,faces-31.jpg,,AC,1,vpnl,2023-11-16_21h08.22.391,longbabyloc,2023.2.2,59.961477626392146,
,,,,,,,,136.83533067301323,19,faces-32.jpg,,AC,1,vpnl,2023-11-16_21h08.22.391,longbabyloc,2023.2.2,59.961477626392146,
,,,,,,,,137.33519110600173,20,hands-25.jpg,,AC,1,vpnl,2023-11-16_21h08.22.391,longbabyloc,2023.2.2,59.961477626392146,
,,,,,,,,137.83516199000587,20,hands-26.jpg,,AC,1,vpnl,2023-11-16_21h08.22.391,longbabyloc,2023.2.2,59.961477626392146,
,,,,,,,,138.3353004630044,20,hands-27.jpg,,AC,1,vpnl,2023-11-16_21h08.22.391,longbabyloc,2023.2.2,59.961477626392146,
,,,,,,,,138.83521238600952,20,hands-28.jpg,,AC,1,vpnl,2023-11-16_21h08.22.391,longbabyloc,2023.2.2,59.961477626392146,
,,,,,,,,139.33529578600428,20,hands-29.jpg,,AC,1,vpnl,2023-11-16_21h08.22.391,longbabyloc,2023.2.2,59.961477626392146,
,,,,,,,,139.83508622100635,20,hands-30.jpg,,AC,1,vpnl,2023-11-16_21h08.22.391,longbabyloc,2023.2.2,59.961477626392146,
,,,,,,,,140.33517181299976,20,hands-31.jpg,,AC,1,vpnl,2023-11-16_21h08.22.391,longbabyloc,2023.2.2,59.961477626392146,
,,,,,,,,140.83512533800968,20,hands-32.jpg,,AC,1,vpnl,2023-11-16_21h08.22.391,longbabyloc,2023.2.2,59.961477626392146,
,,,,,,,,141.33517146301165,21,blank-33.jpg,,AC,1,vpnl,2023-11-16_21h08.22.391,longbabyloc,2023.2.2,59.961477626392146,
,,,,,,,,141.8350470780133,21,blank-34.jpg,,AC,1,vpnl,2023-11-16_21h08.22.391,longbabyloc,2023.2.2,59.961477626392146,
,,,,,,,,142.3351520300057,21,blank-35.jpg,,AC,1,vpnl,2023-11-16_21h08.22.391,longbabyloc,2023.2.2,59.961477626392146,
,,,,,,,,142.83516740301275,21,blank-36.jpg,,AC,1,vpnl,2023-11-16_21h08.22.391,longbabyloc,2023.2.2,59.961477626392146,
,,,,,,,,143.33514802400896,21,blank-37.jpg,,AC,1,vpnl,2023-11-16_21h08.22.391,longbabyloc,2023.2.2,59.961477626392146,
,,,,,,,,143.8350759370078,21,blank-38.jpg,,AC,1,vpnl,2023-11-16_21h08.22.391,longbabyloc,2023.2.2,59.961477626392146,
,,,,,,,,144.33508588800032,21,blank-39.jpg,,AC,1,vpnl,2023-11-16_21h08.22.391,longbabyloc,2023.2.2,59.961477626392146,
,,,,,,,,144.83521630900213,21,blank-40.jpg,,AC,1,vpnl,2023-11-16_21h08.22.391,longbabyloc,2023.2.2,59.961477626392146,
,,,,,,,,145.3350489680015,22,hands-33.jpg,,AC,1,vpnl,2023-11-16_21h08.22.391,longbabyloc,2023.2.2,59.961477626392146,
,,,,,,,,145.83501647500088,22,hands-34.jpg,,AC,1,vpnl,2023-11-16_21h08.22.391,longbabyloc,2023.2.2,59.961477626392146,
,,,,,,,,146.3352685610007,22,hands-35.jpg,,AC,1,vpnl,2023-11-16_21h08.22.391,longbabyloc,2023.2.2,59.961477626392146,
,,,,,,,,146.83509196600062,22,hands-36.jpg,,AC,1,vpnl,2023-11-16_21h08.22.391,longbabyloc,2023.2.2,59.961477626392146,
,,,,,,,,147.33508966400404,22,hands-37.jpg,,AC,1,vpnl,2023-11-16_21h08.22.391,longbabyloc,2023.2.2,59.961477626392146,
,,,,,,,,147.83501452101336,22,hands-38.jpg,,AC,1,vpnl,2023-11-16_21h08.22.391,longbabyloc,2023.2.2,59.961477626392146,
,,,,,,,,148.33496459800517,22,hands-39.jpg,,AC,1,vpnl,2023-11-16_21h08.22.391,longbabyloc,2023.2.2,59.961477626392146,
,,,,,,,,148.83498096300173,22,hands-40.jpg,,AC,1,vpnl,2023-11-16_21h08.22.391,longbabyloc,2023.2.2,59.961477626392146,
,,,,,,,,149.33497540600365,23,scenes-33.jpg,,AC,1,vpnl,2023-11-16_21h08.22.391,longbabyloc,2023.2.2,59.961477626392146,
,,,,,,,,149.83505592901201,23,scenes-34.jpg,,AC,1,vpnl,2023-11-16_21h08.22.391,longbabyloc,2023.2.2,59.961477626392146,
,,,,,,,,150.33499075600412,23,scenes-35.jpg,,AC,1,vpnl,2023-11-16_21h08.22.391,longbabyloc,2023.2.2,59.961477626392146,
,,,,,,,,150.83506432900322,23,scenes-36.jpg,,AC,1,vpnl,2023-11-16_21h08.22.391,longbabyloc,2023.2.2,59.961477626392146,
,,,,,,,,151.33509222100838,23,scenes-37.jpg,,AC,1,vpnl,2023-11-16_21h08.22.391,longbabyloc,2023.2.2,59.961477626392146,
,,,,,,,,151.835116895003,23,scenes-38.jpg,,AC,1,vpnl,2023-11-16_21h08.22.391,longbabyloc,2023.2.2,59.961477626392146,
,,,,,,,,152.335076029005,23,scenes-39.jpg,,AC,1,vpnl,2023-11-16_21h08.22.391,longbabyloc,2023.2.2,59.961477626392146,
,,,,,,,,152.83486005300074,23,scenes-40.jpg,,AC,1,vpnl,2023-11-16_21h08.22.391,longbabyloc,2023.2.2,59.961477626392146,
,,,,,,,,153.33497255900875,24,cars-33.jpg,,AC,1,vpnl,2023-11-16_21h08.22.391,longbabyloc,2023.2.2,59.961477626392146,
,,,,,,,,153.83488355801092,24,cars-34.jpg,,AC,1,vpnl,2023-11-16_21h08.22.391,longbabyloc,2023.2.2,59.961477626392146,
,,,,,,,,154.33582851401297,24,cars-35.jpg,,AC,1,vpnl,2023-11-16_21h08.22.391,longbabyloc,2023.2.2,59.961477626392146,
,,,,,,,,154.83499403500173,24,cars-36.jpg,,AC,1,vpnl,2023-11-16_21h08.22.391,longbabyloc,2023.2.2,59.961477626392146,
,,,,,,,,155.33508498800802,24,cars-37.jpg,,AC,1,vpnl,2023-11-16_21h08.22.391,longbabyloc,2023.2.2,59.961477626392146,
,,,,,,,,155.83491638601117,24,cars-38.jpg,,AC,1,vpnl,2023-11-16_21h08.22.391,longbabyloc,2023.2.2,59.961477626392146,
,,,,,,,,156.31793615600327,24,cars-39.jpg,156.81810622000194,AC,1,vpnl,2023-11-16_21h08.22.391,longbabyloc,2023.2.2,59.961477626392146,
,,,,,,,,156.81810622000194,24,cars-40.jpg,157.3181208390015,AC,1,vpnl,2023-11-16_21h08.22.391,longbabyloc,2023.2.2,59.961477626392146,
,,,,,,,,157.3181208390015,25,faces-33.jpg,157.81821760300954,AC,1,vpnl,2023-11-16_21h08.22.391,longbabyloc,2023.2.2,59.961477626392146,
,,,,,,,,157.81821760300954,25,faces-34.jpg,158.3182678430021,AC,1,vpnl,2023-11-16_21h08.22.391,longbabyloc,2023.2.2,59.961477626392146,
,,,,,,,,158.3182678430021,25,faces-35.jpg,158.8179552710062,AC,1,vpnl,2023-11-16_21h08.22.391,longbabyloc,2023.2.2,59.961477626392146,
,,,,,,,,158.8179552710062,25,faces-36.jpg,159.31817411800148,AC,1,vpnl,2023-11-16_21h08.22.391,longbabyloc,2023.2.2,59.961477626392146,
,,,,,,,,159.31817411800148,25,faces-37.jpg,159.81810539400612,AC,1,vpnl,2023-11-16_21h08.22.391,longbabyloc,2023.2.2,59.961477626392146,
,,,,,,,,159.81810539400612,25,faces-38.jpg,160.3181610770116,AC,1,vpnl,2023-11-16_21h08.22.391,longbabyloc,2023.2.2,59.961477626392146,
,,,,,,,,160.3181610770116,25,faces-39.jpg,160.81813859700924,AC,1,vpnl,2023-11-16_21h08.22.391,longbabyloc,2023.2.2,59.961477626392146,
,,,,,,,,160.81813859700924,25,faces-40.jpg,161.3181713600061,AC,1,vpnl,2023-11-16_21h08.22.391,longbabyloc,2023.2.2,59.961477626392146,
,,,,,,,,161.3181713600061,26,blank-41.jpg,161.81821441001375,AC,1,vpnl,2023-11-16_21h08.22.391,longbabyloc,2023.2.2,59.961477626392146,
,,,,,,,,161.81821441001375,26,blank-42.jpg,162.31820382700243,AC,1,vpnl,2023-11-16_21h08.22.391,longbabyloc,2023.2.2,59.961477626392146,
,,,,,,,,162.31820382700243,26,blank-43.jpg,162.81810370601306,AC,1,vpnl,2023-11-16_21h08.22.391,longbabyloc,2023.2.2,59.961477626392146,
,,,,,,,,162.81810370601306,26,blank-44.jpg,163.3180943220068,AC,1,vpnl,2023-11-16_21h08.22.391,longbabyloc,2023.2.2,59.961477626392146,
,,,,,,,,163.3180943220068,26,blank-45.jpg,163.81808450400422,AC,1,vpnl,2023-11-16_21h08.22.391,longbabyloc,2023.2.2,59.961477626392146,
,,,,,,,,163.81808450400422,26,blank-46.jpg,164.31810064300953,AC,1,vpnl,2023-11-16_21h08.22.391,longbabyloc,2023.2.2,59.961477626392146,
,,,,,,,,164.31810064300953,26,blank-47.jpg,164.81810186700022,AC,1,vpnl,2023-11-16_21h08.22.391,longbabyloc,2023.2.2,59.961477626392146,
,,,,,,,,164.81810186700022,26,blank-48.jpg,165.31821373999992,AC,1,vpnl,2023-11-16_21h08.22.391,longbabyloc,2023.2.2,59.961477626392146,
,,,,,,,,165.31821373999992,27,hands-41.jpg,165.81808270800684,AC,1,vpnl,2023-11-16_21h08.22.391,longbabyloc,2023.2.2,59.961477626392146,
,,,,,,,,165.81808270800684,27,hands-42.jpg,166.31798378701205,AC,1,vpnl,2023-11-16_21h08.22.391,longbabyloc,2023.2.2,59.961477626392146,
,,,,,,,,166.31798378701205,27,hands-43.jpg,166.8180504060001,AC,1,vpnl,2023-11-16_21h08.22.391,longbabyloc,2023.2.2,59.961477626392146,
,,,,,,,,166.8180504060001,27,hands-44.jpg,167.31808954301232,AC,1,vpnl,2023-11-16_21h08.22.391,longbabyloc,2023.2.2,59.961477626392146,
,,,,,,,,167.31808954301232,27,hands-45.jpg,167.81807427000604,AC,1,vpnl,2023-11-16_21h08.22.391,longbabyloc,2023.2.2,59.961477626392146,
,,,,,,,,167.81807427000604,27,hands-46.jpg,168.31788555000094,AC,1,vpnl,2023-11-16_21h08.22.391,longbabyloc,2023.2.2,59.961477626392146,
,,,,,,,,168.31788555000094,27,hands-47.jpg,168.81798473000526,AC,1,vpnl,2023-11-16_21h08.22.391,longbabyloc,2023.2.2,59.961477626392146,
,,,,,,,,168.81798473000526,27,hands-48.jpg,169.3180448050116,AC,1,vpnl,2023-11-16_21h08.22.391,longbabyloc,2023.2.2,59.961477626392146,
,,,,,,,,169.3180448050116,28,blank-49.jpg,169.81810509299976,AC,1,vpnl,2023-11-16_21h08.22.391,longbabyloc,2023.2.2,59.961477626392146,
,,,,,,,,169.81810509299976,28,blank-50.jpg,170.31805515701126,AC,1,vpnl,2023-11-16_21h08.22.391,longbabyloc,2023.2.2,59.961477626392146,
,,,,,,,,170.31805515701126,28,blank-51.jpg,170.8181127400021,AC,1,vpnl,2023-11-16_21h08.22.391,longbabyloc,2023.2.2,59.961477626392146,
,,,,,,,,170.8181127400021,28,blank-52.jpg,171.31818314701377,AC,1,vpnl,2023-11-16_21h08.22.391,longbabyloc,2023.2.2,59.961477626392146,
,,,,,,,,171.31818314701377,28,blank-53.jpg,171.81780262800748,AC,1,vpnl,2023-11-16_21h08.22.391,longbabyloc,2023.2.2,59.961477626392146,
,,,,,,,,171.81780262800748,28,blank-54.jpg,172.31787391300895,AC,1,vpnl,2023-11-16_21h08.22.391,longbabyloc,2023.2.2,59.961477626392146,
,,,,,,,,172.31787391300895,28,blank-55.jpg,172.81794937700033,AC,1,vpnl,2023-11-16_21h08.22.391,longbabyloc,2023.2.2,59.961477626392146,
,,,,,,,,172.81794937700033,28,blank-56.jpg,173.31798941700254,AC,1,vpnl,2023-11-16_21h08.22.391,longbabyloc,2023.2.2,59.961477626392146,
,,,,,,,,173.31798941700254,29,cars-41.jpg,173.81805715701194,AC,1,vpnl,2023-11-16_21h08.22.391,longbabyloc,2023.2.2,59.961477626392146,
,,,,,,,,173.81805715701194,29,cars-42.jpg,174.31783833100053,AC,1,vpnl,2023-11-16_21h08.22.391,longbabyloc,2023.2.2,59.961477626392146,
,,,,,,,,174.31783833100053,29,cars-43.jpg,174.8179602290038,AC,1,vpnl,2023-11-16_21h08.22.391,longbabyloc,2023.2.2,59.961477626392146,
,,,,,,,,174.8179602290038,29,cars-44.jpg,175.3179895300127,AC,1,vpnl,2023-11-16_21h08.22.391,longbabyloc,2023.2.2,59.961477626392146,
,,,,,,,,175.3179895300127,29,cars-45.jpg,175.81799435600988,AC,1,vpnl,2023-11-16_21h08.22.391,longbabyloc,2023.2.2,59.961477626392146,
,,,,,,,,175.81799435600988,29,cars-46.jpg,176.31788120701094,AC,1,vpnl,2023-11-16_21h08.22.391,longbabyloc,2023.2.2,59.961477626392146,
,,,,,,,,176.31788120701094,29,cars-47.jpg,176.8175344760093,AC,1,vpnl,2023-11-16_21h08.22.391,longbabyloc,2023.2.2,59.961477626392146,
,,,,,,,,176.8175344760093,29,cars-48.jpg,177.31785476401274,AC,1,vpnl,2023-11-16_21h08.22.391,longbabyloc,2023.2.2,59.961477626392146,
,,,,,,,,177.31785476401274,30,faces-41.jpg,177.81775930600998,AC,1,vpnl,2023-11-16_21h08.22.391,longbabyloc,2023.2.2,59.961477626392146,
,,,,,,,,177.81775930600998,30,faces-42.jpg,178.32257170601224,AC,1,vpnl,2023-11-16_21h08.22.391,longbabyloc,2023.2.2,59.961477626392146,
,,,,,,,,178.32257170601224,30,faces-43.jpg,,AC,1,vpnl,2023-11-16_21h08.22.391,longbabyloc,2023.2.2,59.961477626392146,
,,,,,,,,178.83454483401147,30,faces-44.jpg,,AC,1,vpnl,2023-11-16_21h08.22.391,longbabyloc,2023.2.2,59.961477626392146,
,,,,,,,,179.3345939990104,30,faces-45.jpg,,AC,1,vpnl,2023-11-16_21h08.22.391,longbabyloc,2023.2.2,59.961477626392146,
,,,,,,,,179.8344572190108,30,faces-46.jpg,,AC,1,vpnl,2023-11-16_21h08.22.391,longbabyloc,2023.2.2,59.961477626392146,
,,,,,,,,180.33450330600317,30,faces-47.jpg,,AC,1,vpnl,2023-11-16_21h08.22.391,longbabyloc,2023.2.2,59.961477626392146,
,,,,,,,,180.83451261700247,30,faces-48.jpg,,AC,1,vpnl,2023-11-16_21h08.22.391,longbabyloc,2023.2.2,59.961477626392146,
,,,,,,,,181.3344863520033,31,scenes-41.jpg,,AC,1,vpnl,2023-11-16_21h08.22.391,longbabyloc,2023.2.2,59.961477626392146,
,,,,,,,,181.83445363301144,31,scenes-42.jpg,,AC,1,vpnl,2023-11-16_21h08.22.391,longbabyloc,2023.2.2,59.961477626392146,
,,,,,,,,182.33465763900313,31,scenes-43.jpg,,AC,1,vpnl,2023-11-16_21h08.22.391,longbabyloc,2023.2.2,59.961477626392146,
,,,,,,,,182.83433622900338,31,scenes-44.jpg,,AC,1,vpnl,2023-11-16_21h08.22.391,longbabyloc,2023.2.2,59.961477626392146,
,,,,,,,,183.3344212140073,31,scenes-45.jpg,,AC,1,vpnl,2023-11-16_21h08.22.391,longbabyloc,2023.2.2,59.961477626392146,
,,,,,,,,183.8344082570111,31,scenes-46.jpg,,AC,1,vpnl,2023-11-16_21h08.22.391,longbabyloc,2023.2.2,59.961477626392146,
,,,,,,,,184.33443074401293,31,scenes-47.jpg,,AC,1,vpnl,2023-11-16_21h08.22.391,longbabyloc,2023.2.2,59.961477626392146,
,,,,,,,,184.8343547330005,31,scenes-48.jpg,,AC,1,vpnl,2023-11-16_21h08.22.391,longbabyloc,2023.2.2,59.961477626392146,
,,,,,,,,185.33431562701298,32,hands-49.jpg,,AC,1,vpnl,2023-11-16_21h08.22.391,longbabyloc,2023.2.2,59.961477626392146,
,,,,,,,,185.8343920430052,32,hands-50.jpg,,AC,1,vpnl,2023-11-16_21h08.22.391,longbabyloc,2023.2.2,59.961477626392146,
,,,,,,,,186.3342742990062,32,hands-51.jpg,,AC,1,vpnl,2023-11-16_21h08.22.391,longbabyloc,2023.2.2,59.961477626392146,
,,,,,,,,186.83435646200087,32,hands-52.jpg,,AC,1,vpnl,2023-11-16_21h08.22.391,longbabyloc,2023.2.2,59.961477626392146,
,,,,,,,,187.3340161619999,32,hands-53.jpg,,AC,1,vpnl,2023-11-16_21h08.22.391,longbabyloc,2023.2.2,59.961477626392146,
,,,,,,,,187.83418980200076,32,hands-54.jpg,,AC,1,vpnl,2023-11-16_21h08.22.391,longbabyloc,2023.2.2,59.961477626392146,
,,,,,,,,188.33421819501382,32,hands-55.jpg,,AC,1,vpnl,2023-11-16_21h08.22.391,longbabyloc,2023.2.2,59.961477626392146,
,,,,,,,,188.83421704100328,32,hands-56.jpg,,AC,1,vpnl,2023-11-16_21h08.22.391,longbabyloc,2023.2.2,59.961477626392146,
,,,,,,,,189.33432106701366,33,scenes-49.jpg,,AC,1,vpnl,2023-11-16_21h08.22.391,longbabyloc,2023.2.2,59.961477626392146,
,,,,,,,,189.83430204700562,33,scenes-50.jpg,,AC,1,vpnl,2023-11-16_21h08.22.391,longbabyloc,2023.2.2,59.961477626392146,
,,,,,,,,190.33440882001014,33,scenes-51.jpg,,AC,1,vpnl,2023-11-16_21h08.22.391,longbabyloc,2023.2.2,59.961477626392146,
,,,,,,,,190.83426812301332,33,scenes-52.jpg,,AC,1,vpnl,2023-11-16_21h08.22.391,longbabyloc,2023.2.2,59.961477626392146,
,,,,,,,,191.33422300600796,33,scenes-53.jpg,,AC,1,vpnl,2023-11-16_21h08.22.391,longbabyloc,2023.2.2,59.961477626392146,
,,,,,,,,191.8343514020089,33,scenes-54.jpg,,AC,1,vpnl,2023-11-16_21h08.22.391,longbabyloc,2023.2.2,59.961477626392146,
,,,,,,,,192.33423486301035,33,scenes-55.jpg,,AC,1,vpnl,2023-11-16_21h08.22.391,longbabyloc,2023.2.2,59.961477626392146,
,,,,,,,,192.83416069700615,33,scenes-56.jpg,,AC,1,vpnl,2023-11-16_21h08.22.391,longbabyloc,2023.2.2,59.961477626392146,
,,,,,,,,193.33422462901217,34,cars-49.jpg,,AC,1,vpnl,2023-11-16_21h08.22.391,longbabyloc,2023.2.2,59.961477626392146,
,,,,,,,,193.83424931600166,34,cars-50.jpg,,AC,1,vpnl,2023-11-16_21h08.22.391,longbabyloc,2023.2.2,59.961477626392146,
,,,,,,,,194.33429545900435,34,cars-51.jpg,,AC,1,vpnl,2023-11-16_21h08.22.391,longbabyloc,2023.2.2,59.961477626392146,
,,,,,,,,194.83430780700292,34,cars-52.jpg,,AC,1,vpnl,2023-11-16_21h08.22.391,longbabyloc,2023.2.2,59.961477626392146,
,,,,,,,,195.33418406400597,34,cars-53.jpg,,AC,1,vpnl,2023-11-16_21h08.22.391,longbabyloc,2023.2.2,59.961477626392146,
,,,,,,,,195.83422243900714,34,cars-54.jpg,,AC,1,vpnl,2023-11-16_21h08.22.391,longbabyloc,2023.2.2,59.961477626392146,
,,,,,,,,196.33429243300634,34,cars-55.jpg,,AC,1,vpnl,2023-11-16_21h08.22.391,longbabyloc,2023.2.2,59.961477626392146,
,,,,,,,,196.83419536800648,34,cars-56.jpg,,AC,1,vpnl,2023-11-16_21h08.22.391,longbabyloc,2023.2.2,59.961477626392146,
,,,,,,,,197.3342199470062,35,faces-49.jpg,,AC,1,vpnl,2023-11-16_21h08.22.391,longbabyloc,2023.2.2,59.961477626392146,
,,,,,,,,197.834081308014,35,faces-50.jpg,,AC,1,vpnl,2023-11-16_21h08.22.391,longbabyloc,2023.2.2,59.961477626392146,
,,,,,,,,198.33411937201163,35,faces-51.jpg,,AC,1,vpnl,2023-11-16_21h08.22.391,longbabyloc,2023.2.2,59.961477626392146,
,,,,,,,,198.8341607170005,35,faces-52.jpg,,AC,1,vpnl,2023-11-16_21h08.22.391,longbabyloc,2023.2.2,59.961477626392146,
,,,,,,,,199.3341382810031,35,faces-53.jpg,,AC,1,vpnl,2023-11-16_21h08.22.391,longbabyloc,2023.2.2,59.961477626392146,
,,,,,,,,199.83406309700513,35,faces-54.jpg,,AC,1,vpnl,2023-11-16_21h08.22.391,longbabyloc,2023.2.2,59.961477626392146,
,,,,,,,,200.33384241600288,35,faces-55.jpg,,AC,1,vpnl,2023-11-16_21h08.22.391,longbabyloc,2023.2.2,59.961477626392146,
,,,,,,,,200.8342090070073,35,faces-56.jpg,,AC,1,vpnl,2023-11-16_21h08.22.391,longbabyloc,2023.2.2,59.961477626392146,
,,,,,,,,201.33416287,36,blank-57.jpg,,AC,1,vpnl,2023-11-16_21h08.22.391,longbabyloc,2023.2.2,59.961477626392146,
,,,,,,,,201.83407210100268,36,blank-58.jpg,,AC,1,vpnl,2023-11-16_21h08.22.391,longbabyloc,2023.2.2,59.961477626392146,
,,,,,,,,202.33417429700785,36,blank-59.jpg,,AC,1,vpnl,2023-11-16_21h08.22.391,longbabyloc,2023.2.2,59.961477626392146,
,,,,,,,,202.83402517800278,36,blank-60.jpg,,AC,1,vpnl,2023-11-16_21h08.22.391,longbabyloc,2023.2.2,59.961477626392146,
,,,,,,,,203.3340547090047,36,blank-61.jpg,,AC,1,vpnl,2023-11-16_21h08.22.391,longbabyloc,2023.2.2,59.961477626392146,
,,,,,,,,203.83380675500666,36,blank-62.jpg,,AC,1,vpnl,2023-11-16_21h08.22.391,longbabyloc,2023.2.2,59.961477626392146,
,,,,,,,,204.33398196501366,36,blank-63.jpg,,AC,1,vpnl,2023-11-16_21h08.22.391,longbabyloc,2023.2.2,59.961477626392146,
,,,,,,,,204.83403865901346,36,blank-64.jpg,,AC,1,vpnl,2023-11-16_21h08.22.391,longbabyloc,2023.2.2,59.961477626392146,
,,,,,,,,205.33412519400008,37,hands-57.jpg,,AC,1,vpnl,2023-11-16_21h08.22.391,longbabyloc,2023.2.2,59.961477626392146,
,,,,,,,,205.83413890301017,37,hands-58.jpg,,AC,1,vpnl,2023-11-16_21h08.22.391,longbabyloc,2023.2.2,59.961477626392146,
,,,,,,,,206.33394536400738,37,hands-59.jpg,,AC,1,vpnl,2023-11-16_21h08.22.391,longbabyloc,2023.2.2,59.961477626392146,
,,,,,,,,206.8338402530062,37,hands-60.jpg,,AC,1,vpnl,2023-11-16_21h08.22.391,longbabyloc,2023.2.2,59.961477626392146,
,,,,,,,,207.3339854490041,37,hands-61.jpg,,AC,1,vpnl,2023-11-16_21h08.22.391,longbabyloc,2023.2.2,59.961477626392146,
,,,,,,,,207.8340210100141,37,hands-62.jpg,,AC,1,vpnl,2023-11-16_21h08.22.391,longbabyloc,2023.2.2,59.961477626392146,
,,,,,,,,208.33399806900707,37,hands-63.jpg,,AC,1,vpnl,2023-11-16_21h08.22.391,longbabyloc,2023.2.2,59.961477626392146,
,,,,,,,,208.83392242300033,37,hands-64.jpg,,AC,1,vpnl,2023-11-16_21h08.22.391,longbabyloc,2023.2.2,59.961477626392146,
,,,,,,,,209.33363816600468,38,blank-65.jpg,,AC,1,vpnl,2023-11-16_21h08.22.391,longbabyloc,2023.2.2,59.961477626392146,
,,,,,,,,209.83402047600248,38,blank-66.jpg,,AC,1,vpnl,2023-11-16_21h08.22.391,longbabyloc,2023.2.2,59.961477626392146,
,,,,,,,,210.3341905020061,38,blank-67.jpg,,AC,1,vpnl,2023-11-16_21h08.22.391,longbabyloc,2023.2.2,59.961477626392146,
,,,,,,,,210.83391928201308,38,blank-68.jpg,,AC,1,vpnl,2023-11-16_21h08.22.391,longbabyloc,2023.2.2,59.961477626392146,
,,,,,,,,211.3336822140118,38,blank-69.jpg,,AC,1,vpnl,2023-11-16_21h08.22.391,longbabyloc,2023.2.2,59.961477626392146,
,,,,,,,,211.83389652300684,38,blank-70.jpg,,AC,1,vpnl,2023-11-16_21h08.22.391,longbabyloc,2023.2.2,59.961477626392146,
,,,,,,,,212.33364838300622,38,blank-71.jpg,,AC,1,vpnl,2023-11-16_21h08.22.391,longbabyloc,2023.2.2,59.961477626392146,
,,,,,,,,212.8338142420107,38,blank-72.jpg,,AC,1,vpnl,2023-11-16_21h08.22.391,longbabyloc,2023.2.2,59.961477626392146,
,,,,,,,,213.33377802200266,39,cars-57.jpg,,AC,1,vpnl,2023-11-16_21h08.22.391,longbabyloc,2023.2.2,59.961477626392146,
,,,,,,,,213.83361571800197,39,cars-58.jpg,,AC,1,vpnl,2023-11-16_21h08.22.391,longbabyloc,2023.2.2,59.961477626392146,
,,,,,,,,214.33392795700638,39,cars-59.jpg,,AC,1,vpnl,2023-11-16_21h08.22.391,longbabyloc,2023.2.2,59.961477626392146,
,,,,,,,,214.8338793800067,39,cars-60.jpg,,AC,1,vpnl,2023-11-16_21h08.22.391,longbabyloc,2023.2.2,59.961477626392146,
,,,,,,,,215.3338498820085,39,cars-61.jpg,,AC,1,vpnl,2023-11-16_21h08.22.391,longbabyloc,2023.2.2,59.961477626392146,
,,,,,,,,215.83385705501132,39,cars-62.jpg,,AC,1,vpnl,2023-11-16_21h08.22.391,longbabyloc,2023.2.2,59.961477626392146,
,,,,,,,,216.3336047130142,39,cars-63.jpg,,AC,1,vpnl,2023-11-16_21h08.22.391,longbabyloc,2023.2.2,59.961477626392146,
,,,,,,,,216.83380289901106,39,cars-64.jpg,,AC,1,vpnl,2023-11-16_21h08.22.391,longbabyloc,2023.2.2,59.961477626392146,
,,,,,,,,217.3336894439999,40,scenes-57.jpg,,AC,1,vpnl,2023-11-16_21h08.22.391,longbabyloc,2023.2.2,59.961477626392146,
,,,,,,,,217.83339310900192,40,scenes-58.jpg,,AC,1,vpnl,2023-11-16_21h08.22.391,longbabyloc,2023.2.2,59.961477626392146,
,,,,,,,,218.33394734500325,40,scenes-59.jpg,,AC,1,vpnl,2023-11-16_21h08.22.391,longbabyloc,2023.2.2,59.961477626392146,
,,,,,,,,218.8336957880092,40,scenes-60.jpg,,AC,1,vpnl,2023-11-16_21h08.22.391,longbabyloc,2023.2.2,59.961477626392146,
,,,,,,,,219.3336946740019,40,scenes-61.jpg,,AC,1,vpnl,2023-11-16_21h08.22.391,longbabyloc,2023.2.2,59.961477626392146,
,,,,,,,,219.83339713700116,40,scenes-62.jpg,,AC,1,vpnl,2023-11-16_21h08.22.391,longbabyloc,2023.2.2,59.961477626392146,
,,,,,,,,220.333459890011,40,scenes-63.jpg,,AC,1,vpnl,2023-11-16_21h08.22.391,longbabyloc,2023.2.2,59.961477626392146,
,,,,,,,,220.83370631599973,40,scenes-64.jpg,,AC,1,vpnl,2023-11-16_21h08.22.391,longbabyloc,2023.2.2,59.961477626392146,
,,,,,,,,221.3334957610059,41,faces-57.jpg,,AC,1,vpnl,2023-11-16_21h08.22.391,longbabyloc,2023.2.2,59.961477626392146,
,,,,,,,,221.8334610160091,41,faces-58.jpg,,AC,1,vpnl,2023-11-16_21h08.22.391,longbabyloc,2023.2.2,59.961477626392146,
,,,,,,,,222.33370686900162,41,faces-59.jpg,,AC,1,vpnl,2023-11-16_21h08.22.391,longbabyloc,2023.2.2,59.961477626392146,
,,,,,,,,222.83333168200625,41,faces-60.jpg,,AC,1,vpnl,2023-11-16_21h08.22.391,longbabyloc,2023.2.2,59.961477626392146,
,,,,,,,,223.3333049260109,41,faces-61.jpg,,AC,1,vpnl,2023-11-16_21h08.22.391,longbabyloc,2023.2.2,59.961477626392146,
,,,,,,,,223.83378488000017,41,faces-62.jpg,,AC,1,vpnl,2023-11-16_21h08.22.391,longbabyloc,2023.2.2,59.961477626392146,
,,,,,,,,224.33373403700534,41,faces-63.jpg,,AC,1,vpnl,2023-11-16_21h08.22.391,longbabyloc,2023.2.2,59.961477626392146,
,,,,,,,,224.83363367800484,41,faces-64.jpg,,AC,1,vpnl,2023-11-16_21h08.22.391,longbabyloc,2023.2.2,59.961477626392146,
,,,,,,,,225.33357964400784,42,scenes-65.jpg,,AC,1,vpnl,2023-11-16_21h08.22.391,longbabyloc,2023.2.2,59.961477626392146,
,,,,,,,,225.8337025100045,42,scenes-66.jpg,,AC,1,vpnl,2023-11-16_21h08.22.391,longbabyloc,2023.2.2,59.961477626392146,
,,,,,,,,226.3335236710118,42,scenes-67.jpg,,AC,1,vpnl,2023-11-16_21h08.22.391,longbabyloc,2023.2.2,59.961477626392146,
,,,,,,,,226.8333001810097,42,scenes-68.jpg,,AC,1,vpnl,2023-11-16_21h08.22.391,longbabyloc,2023.2.2,59.961477626392146,
,,,,,,,,227.33326066900918,42,scenes-69.jpg,,AC,1,vpnl,2023-11-16_21h08.22.391,longbabyloc,2023.2.2,59.961477626392146,
,,,,,,,,227.83339362000697,42,scenes-70.jpg,,AC,1,vpnl,2023-11-16_21h08.22.391,longbabyloc,2023.2.2,59.961477626392146,
,,,,,,,,228.33328506800171,42,scenes-71.jpg,,AC,1,vpnl,2023-11-16_21h08.22.391,longbabyloc,2023.2.2,59.961477626392146,
,,,,,,,,228.83372005801357,42,scenes-72.jpg,,AC,1,vpnl,2023-11-16_21h08.22.391,longbabyloc,2023.2.2,59.961477626392146,
,,,,,,,,229.33324753401394,43,hands-65.jpg,,AC,1,vpnl,2023-11-16_21h08.22.391,longbabyloc,2023.2.2,59.961477626392146,
,,,,,,,,229.83337635401404,43,hands-66.jpg,,AC,1,vpnl,2023-11-16_21h08.22.391,longbabyloc,2023.2.2,59.961477626392146,
,,,,,,,,230.333289770002,43,hands-67.jpg,,AC,1,vpnl,2023-11-16_21h08.22.391,longbabyloc,2023.2.2,59.961477626392146,
,,,,,,,,230.83351024400326,43,hands-68.jpg,,AC,1,vpnl,2023-11-16_21h08.22.391,longbabyloc,2023.2.2,59.961477626392146,
,,,,,,,,231.33333842200227,43,hands-69.jpg,,AC,1,vpnl,2023-11-16_21h08.22.391,longbabyloc,2023.2.2,59.961477626392146,
,,,,,,,,231.83318371900532,43,hands-70.jpg,,AC,1,vpnl,2023-11-16_21h08.22.391,longbabyloc,2023.2.2,59.961477626392146,
,,,,,,,,232.33344001800288,43,hands-71.jpg,,AC,1,vpnl,2023-11-16_21h08.22.391,longbabyloc,2023.2.2,59.961477626392146,
,,,,,,,,232.83345647300303,43,hands-72.jpg,,AC,1,vpnl,2023-11-16_21h08.22.391,longbabyloc,2023.2.2,59.961477626392146,
,,,,,,,,233.33323719201144,44,blank-73.jpg,,AC,1,vpnl,2023-11-16_21h08.22.391,longbabyloc,2023.2.2,59.961477626392146,
,,,,,,,,233.83323666101205,44,blank-74.jpg,,AC,1,vpnl,2023-11-16_21h08.22.391,longbabyloc,2023.2.2,59.961477626392146,
,,,,,,,,234.3332101850101,44,blank-75.jpg,,AC,1,vpnl,2023-11-16_21h08.22.391,longbabyloc,2023.2.2,59.961477626392146,
,,,,,,,,234.83312493101403,44,blank-76.jpg,,AC,1,vpnl,2023-11-16_21h08.22.391,longbabyloc,2023.2.2,59.961477626392146,
,,,,,,,,235.33319563401164,44,blank-77.jpg,,AC,1,vpnl,2023-11-16_21h08.22.391,longbabyloc,2023.2.2,59.961477626392146,
,,,,,,,,235.83323871600442,44,blank-78.jpg,,AC,1,vpnl,2023-11-16_21h08.22.391,longbabyloc,2023.2.2,59.961477626392146,
,,,,,,,,236.33322726200277,44,blank-79.jpg,,AC,1,vpnl,2023-11-16_21h08.22.391,longbabyloc,2023.2.2,59.961477626392146,
,,,,,,,,236.83338456301135,44,blank-80.jpg,,AC,1,vpnl,2023-11-16_21h08.22.391,longbabyloc,2023.2.2,59.961477626392146,
,,,,,,,,237.3331658590032,45,cars-65.jpg,,AC,1,vpnl,2023-11-16_21h08.22.391,longbabyloc,2023.2.2,59.961477626392146,
,,,,,,,,237.83306981201167,45,cars-66.jpg,,AC,1,vpnl,2023-11-16_21h08.22.391,longbabyloc,2023.2.2,59.961477626392146,
,,,,,,,,238.33341918801307,45,cars-67.jpg,,AC,1,vpnl,2023-11-16_21h08.22.391,longbabyloc,2023.2.2,59.961477626392146,
,,,,,,,,238.83352689600724,45,cars-68.jpg,,AC,1,vpnl,2023-11-16_21h08.22.391,longbabyloc,2023.2.2,59.961477626392146,
,,,,,,,,239.33337440001196,45,cars-69.jpg,,AC,1,vpnl,2023-11-16_21h08.22.391,longbabyloc,2023.2.2,59.961477626392146,
,,,,,,,,239.8331232650089,45,cars-70.jpg,,AC,1,vpnl,2023-11-16_21h08.22.391,longbabyloc,2023.2.2,59.961477626392146,
,,,,,,,,240.33314055300434,45,cars-71.jpg,,AC,1,vpnl,2023-11-16_21h08.22.391,longbabyloc,2023.2.2,59.961477626392146,
,,,,,,,,240.83346397300193,45,cars-72.jpg,,AC,1,vpnl,2023-11-16_21h08.22.391,longbabyloc,2023.2.2,59.961477626392146,
,,,,,,,,241.33314121101284,46,faces-65.jpg,,AC,1,vpnl,2023-11-16_21h08.22.391,longbabyloc,2023.2.2,59.961477626392146,
,,,,,,,,241.8329805770045,46,faces-66.jpg,,AC,1,vpnl,2023-11-16_21h08.22.391,longbabyloc,2023.2.2,59.961477626392146,
,,,,,,,,242.3329408740101,46,faces-67.jpg,,AC,1,vpnl,2023-11-16_21h08.22.391,longbabyloc,2023.2.2,59.961477626392146,
,,,,,,,,242.83290645701345,46,faces-68.jpg,,AC,1,vpnl,2023-11-16_21h08.22.391,longbabyloc,2023.2.2,59.961477626392146,
,,,,,,,,243.33308317000046,46,faces-69.jpg,,AC,1,vpnl,2023-11-16_21h08.22.391,longbabyloc,2023.2.2,59.961477626392146,
,,,,,,,,243.83298748200468,46,faces-70.jpg,,AC,1,vpnl,2023-11-16_21h08.22.391,longbabyloc,2023.2.2,59.961477626392146,
,,,,,,,,244.33300607500132,46,faces-71.jpg,,AC,1,vpnl,2023-11-16_21h08.22.391,longbabyloc,2023.2.2,59.961477626392146,
,,,,,,,,244.83298792500864,46,faces-72.jpg,,AC,1,vpnl,2023-11-16_21h08.22.391,longbabyloc,2023.2.2,59.961477626392146,
,,,,,,,,245.33288026800437,47,scenes-73.jpg,,AC,1,vpnl,2023-11-16_21h08.22.391,longbabyloc,2023.2.2,59.961477626392146,
,,,,,,,,245.83300806500483,47,scenes-74.jpg,,AC,1,vpnl,2023-11-16_21h08.22.391,longbabyloc,2023.2.2,59.961477626392146,
,,,,,,,,246.33328742001322,47,scenes-75.jpg,,AC,1,vpnl,2023-11-16_21h08.22.391,longbabyloc,2023.2.2,59.961477626392146,
,,,,,,,,246.83313337100844,47,scenes-76.jpg,,AC,1,vpnl,2023-11-16_21h08.22.391,longbabyloc,2023.2.2,59.961477626392146,
,,,,,,,,247.33297115701134,47,scenes-77.jpg,,AC,1,vpnl,2023-11-16_21h08.22.391,longbabyloc,2023.2.2,59.961477626392146,
,,,,,,,,247.83332851401065,47,scenes-78.jpg,,AC,1,vpnl,2023-11-16_21h08.22.391,longbabyloc,2023.2.2,59.961477626392146,
,,,,,,,,248.33322302400484,47,scenes-79.jpg,,AC,1,vpnl,2023-11-16_21h08.22.391,longbabyloc,2023.2.2,59.961477626392146,
,,,,,,,,248.83297206301359,47,scenes-80.jpg,,AC,1,vpnl,2023-11-16_21h08.22.391,longbabyloc,2023.2.2,59.961477626392146,
,,,,,,,,249.33299646100204,48,hands-73.jpg,,AC,1,vpnl,2023-11-16_21h08.22.391,longbabyloc,2023.2.2,59.961477626392146,
,,,,,,,,249.83296288001293,48,hands-74.jpg,,AC,1,vpnl,2023-11-16_21h08.22.391,longbabyloc,2023.2.2,59.961477626392146,
,,,,,,,,250.33298948200536,48,hands-75.jpg,,AC,1,vpnl,2023-11-16_21h08.22.391,longbabyloc,2023.2.2,59.961477626392146,
,,,,,,,,250.83335404100944,48,hands-76.jpg,,AC,1,vpnl,2023-11-16_21h08.22.391,longbabyloc,2023.2.2,59.961477626392146,
,,,,,,,,251.3329324840015,48,hands-77.jpg,,AC,1,vpnl,2023-11-16_21h08.22.391,longbabyloc,2023.2.2,59.961477626392146,
,,,,,,,,251.83280245801143,48,hands-78.jpg,,AC,1,vpnl,2023-11-16_21h08.22.391,longbabyloc,2023.2.2,59.961477626392146,
,,,,,,,,252.3331502120127,48,hands-79.jpg,,AC,1,vpnl,2023-11-16_21h08.22.391,longbabyloc,2023.2.2,59.961477626392146,
,,,,,,,,252.83335273600824,48,hands-80.jpg,,AC,1,vpnl,2023-11-16_21h08.22.391,longbabyloc,2023.2.2,59.961477626392146,
,,,,,,,,253.33292144500592,49,faces-73.jpg,,AC,1,vpnl,2023-11-16_21h08.22.391,longbabyloc,2023.2.2,59.961477626392146,
,,,,,,,,253.8331638380041,49,faces-74.jpg,,AC,1,vpnl,2023-11-16_21h08.22.391,longbabyloc,2023.2.2,59.961477626392146,
,,,,,,,,254.33315541699994,49,faces-75.jpg,,AC,1,vpnl,2023-11-16_21h08.22.391,longbabyloc,2023.2.2,59.961477626392146,
,,,,,,,,254.83276272000512,49,faces-76.jpg,,AC,1,vpnl,2023-11-16_21h08.22.391,longbabyloc,2023.2.2,59.961477626392146,
,,,,,,,,255.33280294500582,49,faces-77.jpg,,AC,1,vpnl,2023-11-16_21h08.22.391,longbabyloc,2023.2.2,59.961477626392146,
,,,,,,,,255.83287421600835,49,faces-78.jpg,,AC,1,vpnl,2023-11-16_21h08.22.391,longbabyloc,2023.2.2,59.961477626392146,
,,,,,,,,256.3329263820051,49,faces-79.jpg,,AC,1,vpnl,2023-11-16_21h08.22.391,longbabyloc,2023.2.2,59.961477626392146,
,,,,,,,,256.8326994040108,49,faces-80.jpg,,AC,1,vpnl,2023-11-16_21h08.22.391,longbabyloc,2023.2.2,59.961477626392146,
,,,,,,,,257.33273140501115,50,blank-81.jpg,,AC,1,vpnl,2023-11-16_21h08.22.391,longbabyloc,2023.2.2,59.961477626392146,
,,,,,,,,257.832854252003,50,blank-82.jpg,,AC,1,vpnl,2023-11-16_21h08.22.391,longbabyloc,2023.2.2,59.961477626392146,
,,,,,,,,258.33305507700425,50,blank-83.jpg,,AC,1,vpnl,2023-11-16_21h08.22.391,longbabyloc,2023.2.2,59.961477626392146,
,,,,,,,,258.8330982480111,50,blank-84.jpg,,AC,1,vpnl,2023-11-16_21h08.22.391,longbabyloc,2023.2.2,59.961477626392146,
,,,,,,,,259.3327051369997,50,blank-85.jpg,,AC,1,vpnl,2023-11-16_21h08.22.391,longbabyloc,2023.2.2,59.961477626392146,
,,,,,,,,259.83291705400916,50,blank-86.jpg,,AC,1,vpnl,2023-11-16_21h08.22.391,longbabyloc,2023.2.2,59.961477626392146,
,,,,,,,,260.3353384150105,50,blank-87.jpg,,AC,1,vpnl,2023-11-16_21h08.22.391,longbabyloc,2023.2.2,59.961477626392146,
,,,,,,,,260.83281042000453,50,blank-88.jpg,,AC,1,vpnl,2023-11-16_21h08.22.391,longbabyloc,2023.2.2,59.961477626392146,
,,,,,,,,261.33267054600583,51,cars-73.jpg,,AC,1,vpnl,2023-11-16_21h08.22.391,longbabyloc,2023.2.2,59.961477626392146,
,,,,,,,,261.83265183201,51,cars-74.jpg,,AC,1,vpnl,2023-11-16_21h08.22.391,longbabyloc,2023.2.2,59.961477626392146,
,,,,,,,,262.3326694730058,51,cars-75.jpg,,AC,1,vpnl,2023-11-16_21h08.22.391,longbabyloc,2023.2.2,59.961477626392146,
,,,,,,,,262.83259190300305,51,cars-76.jpg,,AC,1,vpnl,2023-11-16_21h08.22.391,longbabyloc,2023.2.2,59.961477626392146,
,,,,,,,,263.3325911300053,51,cars-77.jpg,,AC,1,vpnl,2023-11-16_21h08.22.391,longbabyloc,2023.2.2,59.961477626392146,
,,,,,,,,263.83298221600126,51,cars-78.jpg,,AC,1,vpnl,2023-11-16_21h08.22.391,longbabyloc,2023.2.2,59.961477626392146,
,,,,,,,,264.3329928660096,51,cars-79.jpg,,AC,1,vpnl,2023-11-16_21h08.22.391,longbabyloc,2023.2.2,59.961477626392146,
,,,,,,,,264.8325629510073,51,cars-80.jpg,,AC,1,vpnl,2023-11-16_21h08.22.391,longbabyloc,2023.2.2,59.961477626392146,
,,,,,,,,265.33266405400354,52,scenes-81.jpg,,AC,1,vpnl,2023-11-16_21h08.22.391,longbabyloc,2023.2.2,59.961477626392146,
,,,,,,,,265.83263167200494,52,scenes-82.jpg,,AC,1,vpnl,2023-11-16_21h08.22.391,longbabyloc,2023.2.2,59.961477626392146,
,,,,,,,,266.33281706301204,52,scenes-83.jpg,,AC,1,vpnl,2023-11-16_21h08.22.391,longbabyloc,2023.2.2,59.961477626392146,
,,,,,,,,266.8328591919999,52,scenes-84.jpg,,AC,1,vpnl,2023-11-16_21h08.22.391,longbabyloc,2023.2.2,59.961477626392146,
,,,,,,,,267.332549224011,52,scenes-85.jpg,,AC,1,vpnl,2023-11-16_21h08.22.391,longbabyloc,2023.2.2,59.961477626392146,
,,,,,,,,267.8325682190043,52,scenes-86.jpg,,AC,1,vpnl,2023-11-16_21h08.22.391,longbabyloc,2023.2.2,59.961477626392146,
,,,,,,,,268.33253427100135,52,scenes-87.jpg,,AC,1,vpnl,2023-11-16_21h08.22.391,longbabyloc,2023.2.2,59.961477626392146,
,,,,,,,,268.8325570080051,52,scenes-88.jpg,,AC,1,vpnl,2023-11-16_21h08.22.391,longbabyloc,2023.2.2,59.961477626392146,
,,,,,,,,269.3325167580042,53,faces-81.jpg,,AC,1,vpnl,2023-11-16_21h08.22.391,longbabyloc,2023.2.2,59.961477626392146,
,,,,,,,,269.8325474160083,53,faces-82.jpg,,AC,1,vpnl,2023-11-16_21h08.22.391,longbabyloc,2023.2.2,59.961477626392146,
,,,,,,,,270.33252123701095,53,faces-83.jpg,,AC,1,vpnl,2023-11-16_21h08.22.391,longbabyloc,2023.2.2,59.961477626392146,
,,,,,,,,270.8328086870024,53,faces-84.jpg,,AC,1,vpnl,2023-11-16_21h08.22.391,longbabyloc,2023.2.2,59.961477626392146,
,,,,,,,,271.33259763900423,53,faces-85.jpg,,AC,1,vpnl,2023-11-16_21h08.22.391,longbabyloc,2023.2.2,59.961477626392146,
,,,,,,,,271.83252484400873,53,faces-86.jpg,,AC,1,vpnl,2023-11-16_21h08.22.391,longbabyloc,2023.2.2,59.961477626392146,
,,,,,,,,272.33265802000824,53,faces-87.jpg,,AC,1,vpnl,2023-11-16_21h08.22.391,longbabyloc,2023.2.2,59.961477626392146,
,,,,,,,,272.8324832030048,53,faces-88.jpg,,AC,1,vpnl,2023-11-16_21h08.22.391,longbabyloc,2023.2.2,59.961477626392146,
,,,,,,,,273.3325772570097,54,cars-81.jpg,,AC,1,vpnl,2023-11-16_21h08.22.391,longbabyloc,2023.2.2,59.961477626392146,
,,,,,,,,273.8324712330068,54,cars-82.jpg,,AC,1,vpnl,2023-11-16_21h08.22.391,longbabyloc,2023.2.2,59.961477626392146,
,,,,,,,,274.332939748012,54,cars-83.jpg,,AC,1,vpnl,2023-11-16_21h08.22.391,longbabyloc,2023.2.2,59.961477626392146,
,,,,,,,,274.8325627900049,54,cars-84.jpg,,AC,1,vpnl,2023-11-16_21h08.22.391,longbabyloc,2023.2.2,59.961477626392146,
,,,,,,,,275.33271955400414,54,cars-85.jpg,,AC,1,vpnl,2023-11-16_21h08.22.391,longbabyloc,2023.2.2,59.961477626392146,
,,,,,,,,275.8325003200007,54,cars-86.jpg,,AC,1,vpnl,2023-11-16_21h08.22.391,longbabyloc,2023.2.2,59.961477626392146,
,,,,,,,,276.332576359011,54,cars-87.jpg,,AC,1,vpnl,2023-11-16_21h08.22.391,longbabyloc,2023.2.2,59.961477626392146,
,,,,,,,,276.83237794801244,54,cars-88.jpg,,AC,1,vpnl,2023-11-16_21h08.22.391,longbabyloc,2023.2.2,59.961477626392146,
,,,,,,,,277.3324486280035,55,hands-81.jpg,,AC,1,vpnl,2023-11-16_21h08.22.391,longbabyloc,2023.2.2,59.961477626392146,
,,,,,,,,277.83240221200685,55,hands-82.jpg,,AC,1,vpnl,2023-11-16_21h08.22.391,longbabyloc,2023.2.2,59.961477626392146,
,,,,,,,,278.33254297800886,55,hands-83.jpg,,AC,1,vpnl,2023-11-16_21h08.22.391,longbabyloc,2023.2.2,59.961477626392146,
,,,,,,,,278.8323756170139,55,hands-84.jpg,,AC,1,vpnl,2023-11-16_21h08.22.391,longbabyloc,2023.2.2,59.961477626392146,
,,,,,,,,279.3350846240064,55,hands-85.jpg,,AC,1,vpnl,2023-11-16_21h08.22.391,longbabyloc,2023.2.2,59.961477626392146,
,,,,,,,,279.83232407900505,55,hands-86.jpg,,AC,1,vpnl,2023-11-16_21h08.22.391,longbabyloc,2023.2.2,59.961477626392146,
,,,,,,,,280.33238717200584,55,hands-87.jpg,,AC,1,vpnl,2023-11-16_21h08.22.391,longbabyloc,2023.2.2,59.961477626392146,
,,,,,,,,280.83238448800694,55,hands-88.jpg,,AC,1,vpnl,2023-11-16_21h08.22.391,longbabyloc,2023.2.2,59.961477626392146,
,,,,,,,,281.3323802070081,56,blank-89.jpg,,AC,1,vpnl,2023-11-16_21h08.22.391,longbabyloc,2023.2.2,59.961477626392146,
,,,,,,,,281.83230579701194,56,blank-90.jpg,,AC,1,vpnl,2023-11-16_21h08.22.391,longbabyloc,2023.2.2,59.961477626392146,
,,,,,,,,282.33223927300423,56,blank-91.jpg,,AC,1,vpnl,2023-11-16_21h08.22.391,longbabyloc,2023.2.2,59.961477626392146,
,,,,,,,,282.83224434200383,56,blank-92.jpg,,AC,1,vpnl,2023-11-16_21h08.22.391,longbabyloc,2023.2.2,59.961477626392146,
,,,,,,,,283.3322929660062,56,blank-93.jpg,,AC,1,vpnl,2023-11-16_21h08.22.391,longbabyloc,2023.2.2,59.961477626392146,
,,,,,,,,283.8322125800041,56,blank-94.jpg,,AC,1,vpnl,2023-11-16_21h08.22.391,longbabyloc,2023.2.2,59.961477626392146,
,,,,,,,,284.3323130140052,56,blank-95.jpg,,AC,1,vpnl,2023-11-16_21h08.22.391,longbabyloc,2023.2.2,59.961477626392146,
,,,,,,,,284.8324482980097,56,blank-96.jpg,,AC,1,vpnl,2023-11-16_21h08.22.391,longbabyloc,2023.2.2,59.961477626392146,
,,,,,,,,285.3325812510011,57,faces-89.jpg,,AC,1,vpnl,2023-11-16_21h08.22.391,longbabyloc,2023.2.2,59.961477626392146,
,,,,,,,,285.8337635800126,57,faces-90.jpg,,AC,1,vpnl,2023-11-16_21h08.22.391,longbabyloc,2023.2.2,59.961477626392146,
,,,,,,,,286.3329427710123,57,faces-91.jpg,,AC,1,vpnl,2023-11-16_21h08.22.391,longbabyloc,2023.2.2,59.961477626392146,
,,,,,,,,286.8322031770076,57,faces-92.jpg,,AC,1,vpnl,2023-11-16_21h08.22.391,longbabyloc,2023.2.2,59.961477626392146,
,,,,,,,,287.3387471349997,57,faces-93.jpg,,AC,1,vpnl,2023-11-16_21h08.22.391,longbabyloc,2023.2.2,59.961477626392146,
,,,,,,,,287.8326454410126,57,faces-94.jpg,,AC,1,vpnl,2023-11-16_21h08.22.391,longbabyloc,2023.2.2,59.961477626392146,
,,,,,,,,288.3324086190114,57,faces-95.jpg,,AC,1,vpnl,2023-11-16_21h08.22.391,longbabyloc,2023.2.2,59.961477626392146,
,,,,,,,,288.8361266050051,57,faces-96.jpg,,AC,1,vpnl,2023-11-16_21h08.22.391,longbabyloc,2023.2.2,59.961477626392146,
,,,,,,,,289.33231217300636,58,blank-97.jpg,,AC,1,vpnl,2023-11-16_21h08.22.391,longbabyloc,2023.2.2,59.961477626392146,
,,,,,,,,289.8321543850034,58,blank-98.jpg,,AC,1,vpnl,2023-11-16_21h08.22.391,longbabyloc,2023.2.2,59.961477626392146,
,,,,,,,,290.33219527700567,58,blank-99.jpg,,AC,1,vpnl,2023-11-16_21h08.22.391,longbabyloc,2023.2.2,59.961477626392146,
,,,,,,,,290.8326718310127,58,blank-100.jpg,,AC,1,vpnl,2023-11-16_21h08.22.391,longbabyloc,2023.2.2,59.961477626392146,
,,,,,,,,291.33563024000614,58,blank-101.jpg,,AC,1,vpnl,2023-11-16_21h08.22.391,longbabyloc,2023.2.2,59.961477626392146,
,,,,,,,,291.8320867650036,58,blank-102.jpg,,AC,1,vpnl,2023-11-16_21h08.22.391,longbabyloc,2023.2.2,59.961477626392146,
,,,,,,,,292.3322201150004,58,blank-103.jpg,,AC,1,vpnl,2023-11-16_21h08.22.391,longbabyloc,2023.2.2,59.961477626392146,
,,,,,,,,292.8325769780058,58,blank-104.jpg,,AC,1,vpnl,2023-11-16_21h08.22.391,longbabyloc,2023.2.2,59.961477626392146,
,,,,,,,,293.3332153400115,59,cars-89.jpg,,AC,1,vpnl,2023-11-16_21h08.22.391,longbabyloc,2023.2.2,59.961477626392146,
,,,,,,,,293.8326637440041,59,cars-90.jpg,,AC,1,vpnl,2023-11-16_21h08.22.391,longbabyloc,2023.2.2,59.961477626392146,
,,,,,,,,294.3329189740034,59,cars-91.jpg,,AC,1,vpnl,2023-11-16_21h08.22.391,longbabyloc,2023.2.2,59.961477626392146,
,,,,,,,,294.83333028500783,59,cars-92.jpg,,AC,1,vpnl,2023-11-16_21h08.22.391,longbabyloc,2023.2.2,59.961477626392146,
,,,,,,,,295.3320930470072,59,cars-93.jpg,,AC,1,vpnl,2023-11-16_21h08.22.391,longbabyloc,2023.2.2,59.961477626392146,
,,,,,,,,295.83205709401227,59,cars-94.jpg,,AC,1,vpnl,2023-11-16_21h08.22.391,longbabyloc,2023.2.2,59.961477626392146,
,,,,,,,,296.33353740700113,59,cars-95.jpg,,AC,1,vpnl,2023-11-16_21h08.22.391,longbabyloc,2023.2.2,59.961477626392146,
,,,,,,,,296.83222174001276,59,cars-96.jpg,,AC,1,vpnl,2023-11-16_21h08.22.391,longbabyloc,2023.2.2,59.961477626392146,
,,,,,,,,297.33347580100235,60,hands-89.jpg,,AC,1,vpnl,2023-11-16_21h08.22.391,longbabyloc,2023.2.2,59.961477626392146,
,,,,,,,,297.83207199000753,60,hands-90.jpg,,AC,1,vpnl,2023-11-16_21h08.22.391,longbabyloc,2023.2.2,59.961477626392146,
,,,,,,,,298.33220847600023,60,hands-91.jpg,,AC,1,vpnl,2023-11-16_21h08.22.391,longbabyloc,2023.2.2,59.961477626392146,
,,,,,,,,298.83242372301174,60,hands-92.jpg,,AC,1,vpnl,2023-11-16_21h08.22.391,longbabyloc,2023.2.2,59.961477626392146,
,,,,,,,,299.3320659700112,60,hands-93.jpg,,AC,1,vpnl,2023-11-16_21h08.22.391,longbabyloc,2023.2.2,59.961477626392146,
,,,,,,,,299.83217505500943,60,hands-94.jpg,,AC,1,vpnl,2023-11-16_21h08.22.391,longbabyloc,2023.2.2,59.961477626392146,
,,,,,,,,300.33268012301414,60,hands-95.jpg,,AC,1,vpnl,2023-11-16_21h08.22.391,longbabyloc,2023.2.2,59.961477626392146,
,,,,,,,,300.83227970400185,60,hands-96.jpg,,AC,1,vpnl,2023-11-16_21h08.22.391,longbabyloc,2023.2.2,59.961477626392146,
,,,,,,,,301.33206051800516,61,scenes-89.jpg,,AC,1,vpnl,2023-11-16_21h08.22.391,longbabyloc,2023.2.2,59.961477626392146,
,,,,,,,,301.81531405200076,61,scenes-90.jpg,302.31563734900556,AC,1,vpnl,2023-11-16_21h08.22.391,longbabyloc,2023.2.2,59.961477626392146,
,,,,,,,,302.31563734900556,61,scenes-91.jpg,302.81562572201074,AC,1,vpnl,2023-11-16_21h08.22.391,longbabyloc,2023.2.2,59.961477626392146,
,,,,,,,,302.81562572201074,61,scenes-92.jpg,303.31731844501337,AC,1,vpnl,2023-11-16_21h08.22.391,longbabyloc,2023.2.2,59.961477626392146,
,,,,,,,,303.31731844501337,61,scenes-93.jpg,,AC,1,vpnl,2023-11-16_21h08.22.391,longbabyloc,2023.2.2,59.961477626392146,
,,,,,,,,303.83211876700807,61,scenes-94.jpg,,AC,1,vpnl,2023-11-16_21h08.22.391,longbabyloc,2023.2.2,59.961477626392146,
,,,,,,,,304.33263769400946,61,scenes-95.jpg,,AC,1,vpnl,2023-11-16_21h08.22.391,longbabyloc,2023.2.2,59.961477626392146,
,,,,,,,,304.8320968770131,61,scenes-96.jpg,,AC,1,vpnl,2023-11-16_21h08.22.391,longbabyloc,2023.2.2,59.961477626392146,
,,,,,,,,305.3319394320133,62,blank-105.jpg,,AC,1,vpnl,2023-11-16_21h08.22.391,longbabyloc,2023.2.2,59.961477626392146,
,,,,,,,,305.8322133630136,62,blank-106.jpg,,AC,1,vpnl,2023-11-16_21h08.22.391,longbabyloc,2023.2.2,59.961477626392146,
,,,,,,,,306.33274184400216,62,blank-107.jpg,,AC,1,vpnl,2023-11-16_21h08.22.391,longbabyloc,2023.2.2,59.961477626392146,
,,,,,,,,306.83219690401165,62,blank-108.jpg,,AC,1,vpnl,2023-11-16_21h08.22.391,longbabyloc,2023.2.2,59.961477626392146,
,,,,,,,,307.332128561,62,blank-109.jpg,,AC,1,vpnl,2023-11-16_21h08.22.391,longbabyloc,2023.2.2,59.961477626392146,
,,,,,,,,307.8318550600088,62,blank-110.jpg,,AC,1,vpnl,2023-11-16_21h08.22.391,longbabyloc,2023.2.2,59.961477626392146,
,,,,,,,,308.33252835100575,62,blank-111.jpg,,AC,1,vpnl,2023-11-16_21h08.22.391,longbabyloc,2023.2.2,59.961477626392146,
,,,,,,,,308.832174028008,62,blank-112.jpg,,AC,1,vpnl,2023-11-16_21h08.22.391,longbabyloc,2023.2.2,59.961477626392146,
