thisRow.t,notes,waiting_for_trigger_text.started,trigger.started,trigger.keys,trigger.rt,countdown.started,trial.stopped,stimuli.started,condition,stim_name,participant,run,user,date,expName,psychopyVersion,frameRate,
,,621.5358335260098,621.5358335260098,t,34.362273124977946,,,,,,AC,1,vpnl,2023-11-16_21h08.22.391,longbabyloc,2023.2.2,59.961477626392146,
,,,,,,655.92902344701,40.4036291680095,662.0038938370126,1,blank.mp4,AC,1,vpnl,2023-11-16_21h08.22.391,longbabyloc,2023.2.2,59.961477626392146,
,,,,,,,,666.0767499140056,2,JO_hands_1.mp4,AC,1,vpnl,2023-11-16_21h08.22.391,longbabyloc,2023.2.2,59.961477626392146,
,,,,,,,,670.1102612550021,3,blank.mp4,AC,1,vpnl,2023-11-16_21h08.22.391,longbabyloc,2023.2.2,59.961477626392146,
,,,,,,,,674.0991146160086,4,JY_4.mp4,AC,1,vpnl,2023-11-16_21h08.22.391,longbabyloc,2023.2.2,59.961477626392146,
,,,,,,,,678.141459232007,5,smallshallowmossyrockstream.mp4,AC,1,vpnl,2023-11-16_21h08.22.391,longbabyloc,2023.2.2,59.961477626392146,
,,,,,,,,682.0970953780052,6,car7_1.mp4,AC,1,vpnl,2023-11-16_21h08.22.391,longbabyloc,2023.2.2,59.961477626392146,
,,,,,,,,686.120028039004,7,DO_2.mp4,AC,1,vpnl,2023-11-16_21h08.22.391,longbabyloc,2023.2.2,59.961477626392146,
,,,,,,,,690.1068046540022,8,dumptruck7_1.mp4,AC,1,vpnl,2023-11-16_21h08.22.391,longbabyloc,2023.2.2,59.961477626392146,
,,,,,,,,694.0738116020075,9,JC_hands_4.mp4,AC,1,vpnl,2023-11-16_21h08.22.391,longbabyloc,2023.2.2,59.961477626392146,
,,,,,,,,698.0996481330076,10,blank.mp4,AC,1,vpnl,2023-11-16_21h08.22.391,longbabyloc,2023.2.2,59.961477626392146,
,,,,,,,,702.0820567150076,11,snowylawn.mp4,AC,1,vpnl,2023-11-16_21h08.22.391,longbabyloc,2023.2.2,59.961477626392146,
,,,,,,,,706.1152932810073,12,blank.mp4,AC,1,vpnl,2023-11-16_21h08.22.391,longbabyloc,2023.2.2,59.961477626392146,
,,,,,,,,710.0954242650041,13,JO_4.mp4,AC,1,vpnl,2023-11-16_21h08.22.391,longbabyloc,2023.2.2,59.961477626392146,
,,,,,,,,714.1014569550025,14,JY_hands_1.mp4,AC,1,vpnl,2023-11-16_21h08.22.391,longbabyloc,2023.2.2,59.961477626392146,
,,,,,,,,718.102558826009,15,muddystream.mp4,AC,1,vpnl,2023-11-16_21h08.22.391,longbabyloc,2023.2.2,59.961477626392146,
,,,,,,,,722.1037756970036,16,dumptruck9_1.mp4,AC,1,vpnl,2023-11-16_21h08.22.391,longbabyloc,2023.2.2,59.961477626392146,
,,,,,,,,726.0931227880064,17,BS_hands_3.mp4,AC,1,vpnl,2023-11-16_21h08.22.391,longbabyloc,2023.2.2,59.961477626392146,
,,,,,,,,730.1033785370091,18,junglesmallwaterfall.mp4,AC,1,vpnl,2023-11-16_21h08.22.391,longbabyloc,2023.2.2,59.961477626392146,
,,,,,,,,734.0947401590092,19,blank.mp4,AC,1,vpnl,2023-11-16_21h08.22.391,longbabyloc,2023.2.2,59.961477626392146,
,,,,,,,,738.1303085210093,20,KW_4.mp4,AC,1,vpnl,2023-11-16_21h08.22.391,longbabyloc,2023.2.2,59.961477626392146,
,,,,,,,,742.0843068550021,21,car5_1.mp4,AC,1,vpnl,2023-11-16_21h08.22.391,longbabyloc,2023.2.2,59.961477626392146,
,,,,,,,,746.104051213013,22,EC_hands_1.mp4,AC,1,vpnl,2023-11-16_21h08.22.391,longbabyloc,2023.2.2,59.961477626392146,
,,,,,,,,750.1194276360038,23,AX_2.mp4,AC,1,vpnl,2023-11-16_21h08.22.391,longbabyloc,2023.2.2,59.961477626392146,
,,,,,,,,754.101702978005,24,waterfallwithbluepond.mp4,AC,1,vpnl,2023-11-16_21h08.22.391,longbabyloc,2023.2.2,59.961477626392146,
,,,,,,,,758.0935661010008,25,blank.mp4,AC,1,vpnl,2023-11-16_21h08.22.391,longbabyloc,2023.2.2,59.961477626392146,
,,,,,,,,762.1070476530003,26,dumptruck4_1.mp4,AC,1,vpnl,2023-11-16_21h08.22.391,longbabyloc,2023.2.2,59.961477626392146,
,,,,,,,,766.0817840460077,27,EC_2.mp4,AC,1,vpnl,2023-11-16_21h08.22.391,longbabyloc,2023.2.2,59.961477626392146,
,,,,,,,,770.0910914800043,28,sunsetclouds.mp4,AC,1,vpnl,2023-11-16_21h08.22.391,longbabyloc,2023.2.2,59.961477626392146,
,,,,,,,,774.1206584820029,29,KP_hands_3.mp4,AC,1,vpnl,2023-11-16_21h08.22.391,longbabyloc,2023.2.2,59.961477626392146,
,,,,,,,,778.1184443240054,30,blank.mp4,AC,1,vpnl,2023-11-16_21h08.22.391,longbabyloc,2023.2.2,59.961477626392146,
,,,,,,,,782.107320620009,31,dumptruck8_1.mp4,AC,1,vpnl,2023-11-16_21h08.22.391,longbabyloc,2023.2.2,59.961477626392146,
,,,,,,,,786.1019157290139,32,blank.mp4,AC,1,vpnl,2023-11-16_21h08.22.391,longbabyloc,2023.2.2,59.961477626392146,
,,,,,,,,790.0791586520063,33,car2_1.mp4,AC,1,vpnl,2023-11-16_21h08.22.391,longbabyloc,2023.2.2,59.961477626392146,
,,,,,,,,794.08438097201,34,birchforeststream.mp4,AC,1,vpnl,2023-11-16_21h08.22.391,longbabyloc,2023.2.2,59.961477626392146,
,,,,,,,,798.1249146000046,35,AX_hands_1.mp4,AC,1,vpnl,2023-11-16_21h08.22.391,longbabyloc,2023.2.2,59.961477626392146,
,,,,,,,,802.142656490003,36,SE_2.mp4,AC,1,vpnl,2023-11-16_21h08.22.391,longbabyloc,2023.2.2,59.961477626392146,
,,,,,,,,806.1018517220073,37,blank.mp4,AC,1,vpnl,2023-11-16_21h08.22.391,longbabyloc,2023.2.2,59.961477626392146,
,,,,,,,,810.081834261,38,BS_2.mp4,AC,1,vpnl,2023-11-16_21h08.22.391,longbabyloc,2023.2.2,59.961477626392146,
,,,,,,,,814.1131258200039,39,dumptruck3_1.mp4,AC,1,vpnl,2023-11-16_21h08.22.391,longbabyloc,2023.2.2,59.961477626392146,
,,,,,,,,818.1093699510093,40,sunnyclouds.mp4,AC,1,vpnl,2023-11-16_21h08.22.391,longbabyloc,2023.2.2,59.961477626392146,
,,,,,,,,822.0987599550135,41,BP_hands_2.mp4,AC,1,vpnl,2023-11-16_21h08.22.391,longbabyloc,2023.2.2,59.961477626392146,
,,,,,,,,826.1006398220052,42,KP_2.mp4,AC,1,vpnl,2023-11-16_21h08.22.391,longbabyloc,2023.2.2,59.961477626392146,
,,,,,,,,830.1090442920104,43,car4_1.mp4,AC,1,vpnl,2023-11-16_21h08.22.391,longbabyloc,2023.2.2,59.961477626392146,
,,,,,,,,834.1118631790014,44,IK_hands_2.mp4,AC,1,vpnl,2023-11-16_21h08.22.391,longbabyloc,2023.2.2,59.961477626392146,
,,,,,,,,838.0872729220137,45,blank.mp4,AC,1,vpnl,2023-11-16_21h08.22.391,longbabyloc,2023.2.2,59.961477626392146,
,,,,,,,,842.1024783110042,46,rockycliffbeach.mp4,AC,1,vpnl,2023-11-16_21h08.22.391,longbabyloc,2023.2.2,59.961477626392146,
,,,,,,,,846.0806230620074,47,blank.mp4,AC,1,vpnl,2023-11-16_21h08.22.391,longbabyloc,2023.2.2,59.961477626392146,
,,,,,,,,850.0975762240123,48,BP_4.mp4,AC,1,vpnl,2023-11-16_21h08.22.391,longbabyloc,2023.2.2,59.961477626392146,
,,,,,,,,854.1093094050011,49,SS_hands_4.mp4,AC,1,vpnl,2023-11-16_21h08.22.391,longbabyloc,2023.2.2,59.961477626392146,
,,,,,,,,858.1111251210095,50,rivernearbridge.mp4,AC,1,vpnl,2023-11-16_21h08.22.391,longbabyloc,2023.2.2,59.961477626392146,
,,,,,,,,862.1082587290002,51,car6_1.mp4,AC,1,vpnl,2023-11-16_21h08.22.391,longbabyloc,2023.2.2,59.961477626392146,
,,,,,,,,866.0901315400115,52,JC_3.mp4,AC,1,vpnl,2023-11-16_21h08.22.391,longbabyloc,2023.2.2,59.961477626392146,
,,,,,,,,870.1008916090068,53,SE_hands_1.mp4,AC,1,vpnl,2023-11-16_21h08.22.391,longbabyloc,2023.2.2,59.961477626392146,
,,,,,,,,874.0930382170045,54,dumptruck6_1.mp4,AC,1,vpnl,2023-11-16_21h08.22.391,longbabyloc,2023.2.2,59.961477626392146,
,,,,,,,,878.0983071140072,55,dam.mp4,AC,1,vpnl,2023-11-16_21h08.22.391,longbabyloc,2023.2.2,59.961477626392146,
,,,,,,,,882.0906182710023,56,blank.mp4,AC,1,vpnl,2023-11-16_21h08.22.391,longbabyloc,2023.2.2,59.961477626392146,
,,,,,,,,886.1366162190097,57,forestblueriver.mp4,AC,1,vpnl,2023-11-16_21h08.22.391,longbabyloc,2023.2.2,59.961477626392146,
,,,,,,,,890.1048326140008,58,blank.mp4,AC,1,vpnl,2023-11-16_21h08.22.391,longbabyloc,2023.2.2,59.961477626392146,
,,,,,,,,894.1176559630112,59,DO_hands_2.mp4,AC,1,vpnl,2023-11-16_21h08.22.391,longbabyloc,2023.2.2,59.961477626392146,
,,,,,,,,898.1047719940107,60,blueexcavator_9.mp4,AC,1,vpnl,2023-11-16_21h08.22.391,longbabyloc,2023.2.2,59.961477626392146,
,,,,,,,,902.0938152750023,61,IK_1.mp4,AC,1,vpnl,2023-11-16_21h08.22.391,longbabyloc,2023.2.2,59.961477626392146,
,,,,,,,,906.1098014440067,62,blank.mp4,AC,1,vpnl,2023-11-16_21h08.22.391,longbabyloc,2023.2.2,59.961477626392146,
