thisRow.t,notes,waiting_for_trigger_text.started,trigger.started,trigger.keys,trigger.rt,countdown.started,trial.stopped,stimuli.started,condition,stim_name,participant,run,user,date,expName,psychopyVersion,frameRate,
,,365.9332967030059,365.9332967030059,t,44.10455658799037,,,,,,DO,1,vpnl,2023-11-09_20h30.26.016,longbabyloc,2023.2.2,60.00797386125317,
,,,,,,410.0569721560023,50.13136684500205,416.069350744001,1,blank-97.jpg,DO,1,vpnl,2023-11-09_20h30.26.016,longbabyloc,2023.2.2,60.00797386125317,
,,,,,,,,416.57000512500235,1,blank-98.jpg,DO,1,vpnl,2023-11-09_20h30.26.016,longbabyloc,2023.2.2,60.00797386125317,
,,,,,,,,417.06893608100654,1,blank-99.jpg,DO,1,vpnl,2023-11-09_20h30.26.016,longbabyloc,2023.2.2,60.00797386125317,
,,,,,,,,417.56876212800853,1,blank-100.jpg,DO,1,vpnl,2023-11-09_20h30.26.016,longbabyloc,2023.2.2,60.00797386125317,
,,,,,,,,418.06881267399876,1,blank-101.jpg,DO,1,vpnl,2023-11-09_20h30.26.016,longbabyloc,2023.2.2,60.00797386125317,
,,,,,,,,418.5687954820023,1,blank-102.jpg,DO,1,vpnl,2023-11-09_20h30.26.016,longbabyloc,2023.2.2,60.00797386125317,
,,,,,,,,419.0691843320092,1,blank-103.jpg,DO,1,vpnl,2023-11-09_20h30.26.016,longbabyloc,2023.2.2,60.00797386125317,
,,,,,,,,419.5689152230043,1,blank-104.jpg,DO,1,vpnl,2023-11-09_20h30.26.016,longbabyloc,2023.2.2,60.00797386125317,
,,,,,,,,420.06874852100736,2,hands-97.jpg,DO,1,vpnl,2023-11-09_20h30.26.016,longbabyloc,2023.2.2,60.00797386125317,
,,,,,,,,420.56887093000114,2,hands-98.jpg,DO,1,vpnl,2023-11-09_20h30.26.016,longbabyloc,2023.2.2,60.00797386125317,
,,,,,,,,421.06873203899886,2,hands-99.jpg,DO,1,vpnl,2023-11-09_20h30.26.016,longbabyloc,2023.2.2,60.00797386125317,
,,,,,,,,421.5686617129977,2,hands-100.jpg,DO,1,vpnl,2023-11-09_20h30.26.016,longbabyloc,2023.2.2,60.00797386125317,
,,,,,,,,422.06859000000986,2,hands-101.jpg,DO,1,vpnl,2023-11-09_20h30.26.016,longbabyloc,2023.2.2,60.00797386125317,
,,,,,,,,422.56875763399876,2,hands-102.jpg,DO,1,vpnl,2023-11-09_20h30.26.016,longbabyloc,2023.2.2,60.00797386125317,
,,,,,,,,423.06865956301044,2,hands-103.jpg,DO,1,vpnl,2023-11-09_20h30.26.016,longbabyloc,2023.2.2,60.00797386125317,
,,,,,,,,423.56869277500664,2,hands-104.jpg,DO,1,vpnl,2023-11-09_20h30.26.016,longbabyloc,2023.2.2,60.00797386125317,
,,,,,,,,424.07287774000724,3,cars-97.jpg,DO,1,vpnl,2023-11-09_20h30.26.016,longbabyloc,2023.2.2,60.00797386125317,
,,,,,,,,424.5686543710035,3,cars-98.jpg,DO,1,vpnl,2023-11-09_20h30.26.016,longbabyloc,2023.2.2,60.00797386125317,
,,,,,,,,425.068680219003,3,cars-99.jpg,DO,1,vpnl,2023-11-09_20h30.26.016,longbabyloc,2023.2.2,60.00797386125317,
,,,,,,,,425.568616671997,3,cars-100.jpg,DO,1,vpnl,2023-11-09_20h30.26.016,longbabyloc,2023.2.2,60.00797386125317,
,,,,,,,,426.06858659000136,3,cars-101.jpg,DO,1,vpnl,2023-11-09_20h30.26.016,longbabyloc,2023.2.2,60.00797386125317,
,,,,,,,,426.5686273309984,3,cars-102.jpg,DO,1,vpnl,2023-11-09_20h30.26.016,longbabyloc,2023.2.2,60.00797386125317,
,,,,,,,,427.0685271770053,3,cars-103.jpg,DO,1,vpnl,2023-11-09_20h30.26.016,longbabyloc,2023.2.2,60.00797386125317,
,,,,,,,,427.56845251900086,3,cars-104.jpg,DO,1,vpnl,2023-11-09_20h30.26.016,longbabyloc,2023.2.2,60.00797386125317,
,,,,,,,,428.0685949780018,4,faces-97.jpg,DO,1,vpnl,2023-11-09_20h30.26.016,longbabyloc,2023.2.2,60.00797386125317,
,,,,,,,,428.56854578600905,4,faces-98.jpg,DO,1,vpnl,2023-11-09_20h30.26.016,longbabyloc,2023.2.2,60.00797386125317,
,,,,,,,,429.06848104200617,4,faces-99.jpg,DO,1,vpnl,2023-11-09_20h30.26.016,longbabyloc,2023.2.2,60.00797386125317,
,,,,,,,,429.5688301080081,4,faces-100.jpg,DO,1,vpnl,2023-11-09_20h30.26.016,longbabyloc,2023.2.2,60.00797386125317,
,,,,,,,,430.0685326340026,4,faces-101.jpg,DO,1,vpnl,2023-11-09_20h30.26.016,longbabyloc,2023.2.2,60.00797386125317,
,,,,,,,,430.5687157689972,4,faces-102.jpg,DO,1,vpnl,2023-11-09_20h30.26.016,longbabyloc,2023.2.2,60.00797386125317,
,,,,,,,,431.06844839200494,4,faces-103.jpg,DO,1,vpnl,2023-11-09_20h30.26.016,longbabyloc,2023.2.2,60.00797386125317,
,,,,,,,,431.5684860809997,4,faces-104.jpg,DO,1,vpnl,2023-11-09_20h30.26.016,longbabyloc,2023.2.2,60.00797386125317,
,,,,,,,,432.0684730290086,5,blank-105.jpg,DO,1,vpnl,2023-11-09_20h30.26.016,longbabyloc,2023.2.2,60.00797386125317,
,,,,,,,,432.5684936530015,5,blank-106.jpg,DO,1,vpnl,2023-11-09_20h30.26.016,longbabyloc,2023.2.2,60.00797386125317,
,,,,,,,,433.068488903009,5,blank-107.jpg,DO,1,vpnl,2023-11-09_20h30.26.016,longbabyloc,2023.2.2,60.00797386125317,
,,,,,,,,433.5686263109965,5,blank-108.jpg,DO,1,vpnl,2023-11-09_20h30.26.016,longbabyloc,2023.2.2,60.00797386125317,
,,,,,,,,434.06877134900424,5,blank-109.jpg,DO,1,vpnl,2023-11-09_20h30.26.016,longbabyloc,2023.2.2,60.00797386125317,
,,,,,,,,434.5684440199984,5,blank-110.jpg,DO,1,vpnl,2023-11-09_20h30.26.016,longbabyloc,2023.2.2,60.00797386125317,
,,,,,,,,435.0685628729989,5,blank-111.jpg,DO,1,vpnl,2023-11-09_20h30.26.016,longbabyloc,2023.2.2,60.00797386125317,
,,,,,,,,435.5685230399977,5,blank-112.jpg,DO,1,vpnl,2023-11-09_20h30.26.016,longbabyloc,2023.2.2,60.00797386125317,
,,,,,,,,436.0683515230048,6,scenes-97.jpg,DO,1,vpnl,2023-11-09_20h30.26.016,longbabyloc,2023.2.2,60.00797386125317,
,,,,,,,,436.5683558250021,6,scenes-98.jpg,DO,1,vpnl,2023-11-09_20h30.26.016,longbabyloc,2023.2.2,60.00797386125317,
,,,,,,,,437.0683973470004,6,scenes-99.jpg,DO,1,vpnl,2023-11-09_20h30.26.016,longbabyloc,2023.2.2,60.00797386125317,
,,,,,,,,437.56841664901003,6,scenes-100.jpg,DO,1,vpnl,2023-11-09_20h30.26.016,longbabyloc,2023.2.2,60.00797386125317,
,,,,,,,,438.06834466299915,6,scenes-101.jpg,DO,1,vpnl,2023-11-09_20h30.26.016,longbabyloc,2023.2.2,60.00797386125317,
,,,,,,,,438.5683110060054,6,scenes-102.jpg,DO,1,vpnl,2023-11-09_20h30.26.016,longbabyloc,2023.2.2,60.00797386125317,
,,,,,,,,439.06846587000473,6,scenes-103.jpg,DO,1,vpnl,2023-11-09_20h30.26.016,longbabyloc,2023.2.2,60.00797386125317,
,,,,,,,,439.5685435070045,6,scenes-104.jpg,DO,1,vpnl,2023-11-09_20h30.26.016,longbabyloc,2023.2.2,60.00797386125317,
,,,,,,,,440.06831238900486,7,blank-113.jpg,DO,1,vpnl,2023-11-09_20h30.26.016,longbabyloc,2023.2.2,60.00797386125317,
,,,,,,,,440.5686365950096,7,blank-114.jpg,DO,1,vpnl,2023-11-09_20h30.26.016,longbabyloc,2023.2.2,60.00797386125317,
,,,,,,,,441.0682960880076,7,blank-115.jpg,DO,1,vpnl,2023-11-09_20h30.26.016,longbabyloc,2023.2.2,60.00797386125317,
,,,,,,,,441.56833330400696,7,blank-116.jpg,DO,1,vpnl,2023-11-09_20h30.26.016,longbabyloc,2023.2.2,60.00797386125317,
,,,,,,,,442.0682273410057,7,blank-117.jpg,DO,1,vpnl,2023-11-09_20h30.26.016,longbabyloc,2023.2.2,60.00797386125317,
,,,,,,,,442.5683704999974,7,blank-118.jpg,DO,1,vpnl,2023-11-09_20h30.26.016,longbabyloc,2023.2.2,60.00797386125317,
,,,,,,,,443.06830881700444,7,blank-119.jpg,DO,1,vpnl,2023-11-09_20h30.26.016,longbabyloc,2023.2.2,60.00797386125317,
,,,,,,,,443.5682574100065,7,blank-120.jpg,DO,1,vpnl,2023-11-09_20h30.26.016,longbabyloc,2023.2.2,60.00797386125317,
,,,,,,,,444.0682701110054,8,scenes-105.jpg,DO,1,vpnl,2023-11-09_20h30.26.016,longbabyloc,2023.2.2,60.00797386125317,
,,,,,,,,444.5683602830104,8,scenes-106.jpg,DO,1,vpnl,2023-11-09_20h30.26.016,longbabyloc,2023.2.2,60.00797386125317,
,,,,,,,,445.068319323007,8,scenes-107.jpg,DO,1,vpnl,2023-11-09_20h30.26.016,longbabyloc,2023.2.2,60.00797386125317,
,,,,,,,,445.56832727300934,8,scenes-108.jpg,DO,1,vpnl,2023-11-09_20h30.26.016,longbabyloc,2023.2.2,60.00797386125317,
,,,,,,,,446.06813085199974,8,scenes-109.jpg,DO,1,vpnl,2023-11-09_20h30.26.016,longbabyloc,2023.2.2,60.00797386125317,
,,,,,,,,446.5683452210069,8,scenes-110.jpg,DO,1,vpnl,2023-11-09_20h30.26.016,longbabyloc,2023.2.2,60.00797386125317,
,,,,,,,,447.06846256399876,8,scenes-111.jpg,DO,1,vpnl,2023-11-09_20h30.26.016,longbabyloc,2023.2.2,60.00797386125317,
,,,,,,,,447.56811073599965,8,scenes-112.jpg,DO,1,vpnl,2023-11-09_20h30.26.016,longbabyloc,2023.2.2,60.00797386125317,
,,,,,,,,448.06820994500595,9,cars-105.jpg,DO,1,vpnl,2023-11-09_20h30.26.016,longbabyloc,2023.2.2,60.00797386125317,
,,,,,,,,448.5682212660031,9,cars-106.jpg,DO,1,vpnl,2023-11-09_20h30.26.016,longbabyloc,2023.2.2,60.00797386125317,
,,,,,,,,449.0680926290079,9,cars-107.jpg,DO,1,vpnl,2023-11-09_20h30.26.016,longbabyloc,2023.2.2,60.00797386125317,
,,,,,,,,449.56810270799906,9,cars-108.jpg,DO,1,vpnl,2023-11-09_20h30.26.016,longbabyloc,2023.2.2,60.00797386125317,
,,,,,,,,450.0682352040021,9,cars-109.jpg,DO,1,vpnl,2023-11-09_20h30.26.016,longbabyloc,2023.2.2,60.00797386125317,
,,,,,,,,450.56821333600965,9,cars-110.jpg,DO,1,vpnl,2023-11-09_20h30.26.016,longbabyloc,2023.2.2,60.00797386125317,
,,,,,,,,451.068085499006,9,cars-111.jpg,DO,1,vpnl,2023-11-09_20h30.26.016,longbabyloc,2023.2.2,60.00797386125317,
,,,,,,,,451.56810045400925,9,cars-112.jpg,DO,1,vpnl,2023-11-09_20h30.26.016,longbabyloc,2023.2.2,60.00797386125317,
,,,,,,,,452.06817423400935,10,faces-105.jpg,DO,1,vpnl,2023-11-09_20h30.26.016,longbabyloc,2023.2.2,60.00797386125317,
,,,,,,,,452.568197162007,10,faces-106.jpg,DO,1,vpnl,2023-11-09_20h30.26.016,longbabyloc,2023.2.2,60.00797386125317,
,,,,,,,,453.06806605600286,10,faces-107.jpg,DO,1,vpnl,2023-11-09_20h30.26.016,longbabyloc,2023.2.2,60.00797386125317,
,,,,,,,,453.56809043600515,10,faces-108.jpg,DO,1,vpnl,2023-11-09_20h30.26.016,longbabyloc,2023.2.2,60.00797386125317,
,,,,,,,,454.0682213770051,10,faces-109.jpg,DO,1,vpnl,2023-11-09_20h30.26.016,longbabyloc,2023.2.2,60.00797386125317,
,,,,,,,,454.5681183590059,10,faces-110.jpg,DO,1,vpnl,2023-11-09_20h30.26.016,longbabyloc,2023.2.2,60.00797386125317,
,,,,,,,,455.0682177270064,10,faces-111.jpg,DO,1,vpnl,2023-11-09_20h30.26.016,longbabyloc,2023.2.2,60.00797386125317,
,,,,,,,,455.56834204599727,10,faces-112.jpg,DO,1,vpnl,2023-11-09_20h30.26.016,longbabyloc,2023.2.2,60.00797386125317,
,,,,,,,,456.0679839360091,11,hands-105.jpg,DO,1,vpnl,2023-11-09_20h30.26.016,longbabyloc,2023.2.2,60.00797386125317,
,,,,,,,,456.56795281400264,11,hands-106.jpg,DO,1,vpnl,2023-11-09_20h30.26.016,longbabyloc,2023.2.2,60.00797386125317,
,,,,,,,,457.0679270730034,11,hands-107.jpg,DO,1,vpnl,2023-11-09_20h30.26.016,longbabyloc,2023.2.2,60.00797386125317,
,,,,,,,,457.56800122100685,11,hands-108.jpg,DO,1,vpnl,2023-11-09_20h30.26.016,longbabyloc,2023.2.2,60.00797386125317,
,,,,,,,,458.06797599700803,11,hands-109.jpg,DO,1,vpnl,2023-11-09_20h30.26.016,longbabyloc,2023.2.2,60.00797386125317,
,,,,,,,,458.56819689800614,11,hands-110.jpg,DO,1,vpnl,2023-11-09_20h30.26.016,longbabyloc,2023.2.2,60.00797386125317,
,,,,,,,,459.06793482400826,11,hands-111.jpg,DO,1,vpnl,2023-11-09_20h30.26.016,longbabyloc,2023.2.2,60.00797386125317,
,,,,,,,,459.5680435640097,11,hands-112.jpg,DO,1,vpnl,2023-11-09_20h30.26.016,longbabyloc,2023.2.2,60.00797386125317,
,,,,,,,,460.0679427090072,12,scenes-113.jpg,DO,1,vpnl,2023-11-09_20h30.26.016,longbabyloc,2023.2.2,60.00797386125317,
,,,,,,,,460.5678454010049,12,scenes-114.jpg,DO,1,vpnl,2023-11-09_20h30.26.016,longbabyloc,2023.2.2,60.00797386125317,
,,,,,,,,461.0677705260023,12,scenes-115.jpg,DO,1,vpnl,2023-11-09_20h30.26.016,longbabyloc,2023.2.2,60.00797386125317,
,,,,,,,,461.5679692190024,12,scenes-116.jpg,DO,1,vpnl,2023-11-09_20h30.26.016,longbabyloc,2023.2.2,60.00797386125317,
,,,,,,,,462.06787309100037,12,scenes-117.jpg,DO,1,vpnl,2023-11-09_20h30.26.016,longbabyloc,2023.2.2,60.00797386125317,
,,,,,,,,462.56788947399764,12,scenes-118.jpg,DO,1,vpnl,2023-11-09_20h30.26.016,longbabyloc,2023.2.2,60.00797386125317,
,,,,,,,,463.067821966004,12,scenes-119.jpg,DO,1,vpnl,2023-11-09_20h30.26.016,longbabyloc,2023.2.2,60.00797386125317,
,,,,,,,,463.56804111199745,12,scenes-120.jpg,DO,1,vpnl,2023-11-09_20h30.26.016,longbabyloc,2023.2.2,60.00797386125317,
,,,,,,,,464.06787644200085,13,cars-113.jpg,DO,1,vpnl,2023-11-09_20h30.26.016,longbabyloc,2023.2.2,60.00797386125317,
,,,,,,,,464.5681594820053,13,cars-114.jpg,DO,1,vpnl,2023-11-09_20h30.26.016,longbabyloc,2023.2.2,60.00797386125317,
,,,,,,,,465.06784438400064,13,cars-115.jpg,DO,1,vpnl,2023-11-09_20h30.26.016,longbabyloc,2023.2.2,60.00797386125317,
,,,,,,,,465.56798475800315,13,cars-116.jpg,DO,1,vpnl,2023-11-09_20h30.26.016,longbabyloc,2023.2.2,60.00797386125317,
,,,,,,,,466.0678732420056,13,cars-117.jpg,DO,1,vpnl,2023-11-09_20h30.26.016,longbabyloc,2023.2.2,60.00797386125317,
,,,,,,,,466.567877820009,13,cars-118.jpg,DO,1,vpnl,2023-11-09_20h30.26.016,longbabyloc,2023.2.2,60.00797386125317,
,,,,,,,,467.0677964439965,13,cars-119.jpg,DO,1,vpnl,2023-11-09_20h30.26.016,longbabyloc,2023.2.2,60.00797386125317,
,,,,,,,,467.5678634939977,13,cars-120.jpg,DO,1,vpnl,2023-11-09_20h30.26.016,longbabyloc,2023.2.2,60.00797386125317,
,,,,,,,,468.0677835940005,14,faces-113.jpg,DO,1,vpnl,2023-11-09_20h30.26.016,longbabyloc,2023.2.2,60.00797386125317,
,,,,,,,,468.56782367599953,14,faces-114.jpg,DO,1,vpnl,2023-11-09_20h30.26.016,longbabyloc,2023.2.2,60.00797386125317,
,,,,,,,,469.06864927000424,14,faces-115.jpg,DO,1,vpnl,2023-11-09_20h30.26.016,longbabyloc,2023.2.2,60.00797386125317,
,,,,,,,,469.56798950600205,14,faces-116.jpg,DO,1,vpnl,2023-11-09_20h30.26.016,longbabyloc,2023.2.2,60.00797386125317,
,,,,,,,,470.07156349699653,14,faces-117.jpg,DO,1,vpnl,2023-11-09_20h30.26.016,longbabyloc,2023.2.2,60.00797386125317,
,,,,,,,,470.5677374640072,14,faces-118.jpg,DO,1,vpnl,2023-11-09_20h30.26.016,longbabyloc,2023.2.2,60.00797386125317,
,,,,,,,,471.06776979600545,14,faces-119.jpg,DO,1,vpnl,2023-11-09_20h30.26.016,longbabyloc,2023.2.2,60.00797386125317,
,,,,,,,,471.5676870400057,14,faces-120.jpg,DO,1,vpnl,2023-11-09_20h30.26.016,longbabyloc,2023.2.2,60.00797386125317,
,,,,,,,,472.0677366309974,15,hands-113.jpg,DO,1,vpnl,2023-11-09_20h30.26.016,longbabyloc,2023.2.2,60.00797386125317,
,,,,,,,,472.5675689530035,15,hands-114.jpg,DO,1,vpnl,2023-11-09_20h30.26.016,longbabyloc,2023.2.2,60.00797386125317,
,,,,,,,,473.0677340490074,15,hands-115.jpg,DO,1,vpnl,2023-11-09_20h30.26.016,longbabyloc,2023.2.2,60.00797386125317,
,,,,,,,,473.5676326170069,15,hands-116.jpg,DO,1,vpnl,2023-11-09_20h30.26.016,longbabyloc,2023.2.2,60.00797386125317,
,,,,,,,,474.06768198200734,15,hands-117.jpg,DO,1,vpnl,2023-11-09_20h30.26.016,longbabyloc,2023.2.2,60.00797386125317,
,,,,,,,,474.5676803820097,15,hands-118.jpg,DO,1,vpnl,2023-11-09_20h30.26.016,longbabyloc,2023.2.2,60.00797386125317,
,,,,,,,,475.0676676120056,15,hands-119.jpg,DO,1,vpnl,2023-11-09_20h30.26.016,longbabyloc,2023.2.2,60.00797386125317,
,,,,,,,,475.56766820000485,15,hands-120.jpg,DO,1,vpnl,2023-11-09_20h30.26.016,longbabyloc,2023.2.2,60.00797386125317,
,,,,,,,,476.0675376930012,16,blank-121.jpg,DO,1,vpnl,2023-11-09_20h30.26.016,longbabyloc,2023.2.2,60.00797386125317,
,,,,,,,,476.5675845490041,16,blank-122.jpg,DO,1,vpnl,2023-11-09_20h30.26.016,longbabyloc,2023.2.2,60.00797386125317,
,,,,,,,,477.067624318006,16,blank-123.jpg,DO,1,vpnl,2023-11-09_20h30.26.016,longbabyloc,2023.2.2,60.00797386125317,
,,,,,,,,477.56762850600353,16,blank-124.jpg,DO,1,vpnl,2023-11-09_20h30.26.016,longbabyloc,2023.2.2,60.00797386125317,
,,,,,,,,478.06780429100036,16,blank-125.jpg,DO,1,vpnl,2023-11-09_20h30.26.016,longbabyloc,2023.2.2,60.00797386125317,
,,,,,,,,478.5675526300038,16,blank-126.jpg,DO,1,vpnl,2023-11-09_20h30.26.016,longbabyloc,2023.2.2,60.00797386125317,
,,,,,,,,479.0678381680045,16,blank-127.jpg,DO,1,vpnl,2023-11-09_20h30.26.016,longbabyloc,2023.2.2,60.00797386125317,
,,,,,,,,479.5676694760041,16,blank-128.jpg,DO,1,vpnl,2023-11-09_20h30.26.016,longbabyloc,2023.2.2,60.00797386125317,
,,,,,,,,480.067892749008,17,scenes-121.jpg,DO,1,vpnl,2023-11-09_20h30.26.016,longbabyloc,2023.2.2,60.00797386125317,
,,,,,,,,480.5675866399979,17,scenes-122.jpg,DO,1,vpnl,2023-11-09_20h30.26.016,longbabyloc,2023.2.2,60.00797386125317,
,,,,,,,,481.06749679699715,17,scenes-123.jpg,DO,1,vpnl,2023-11-09_20h30.26.016,longbabyloc,2023.2.2,60.00797386125317,
,,,,,,,,481.5675732820091,17,scenes-124.jpg,DO,1,vpnl,2023-11-09_20h30.26.016,longbabyloc,2023.2.2,60.00797386125317,
,,,,,,,,482.06775585400464,17,scenes-125.jpg,DO,1,vpnl,2023-11-09_20h30.26.016,longbabyloc,2023.2.2,60.00797386125317,
,,,,,,,,482.5675003850047,17,scenes-126.jpg,DO,1,vpnl,2023-11-09_20h30.26.016,longbabyloc,2023.2.2,60.00797386125317,
,,,,,,,,483.0677344779979,17,scenes-127.jpg,DO,1,vpnl,2023-11-09_20h30.26.016,longbabyloc,2023.2.2,60.00797386125317,
,,,,,,,,483.56759425600467,17,scenes-128.jpg,DO,1,vpnl,2023-11-09_20h30.26.016,longbabyloc,2023.2.2,60.00797386125317,
,,,,,,,,484.06764955600374,18,hands-121.jpg,DO,1,vpnl,2023-11-09_20h30.26.016,longbabyloc,2023.2.2,60.00797386125317,
,,,,,,,,484.5674718070077,18,hands-122.jpg,DO,1,vpnl,2023-11-09_20h30.26.016,longbabyloc,2023.2.2,60.00797386125317,
,,,,,,,,485.0677352990024,18,hands-123.jpg,DO,1,vpnl,2023-11-09_20h30.26.016,longbabyloc,2023.2.2,60.00797386125317,
,,,,,,,,485.5675798900047,18,hands-124.jpg,DO,1,vpnl,2023-11-09_20h30.26.016,longbabyloc,2023.2.2,60.00797386125317,
,,,,,,,,486.06730563500605,18,hands-125.jpg,DO,1,vpnl,2023-11-09_20h30.26.016,longbabyloc,2023.2.2,60.00797386125317,
,,,,,,,,486.5673788139975,18,hands-126.jpg,DO,1,vpnl,2023-11-09_20h30.26.016,longbabyloc,2023.2.2,60.00797386125317,
,,,,,,,,487.06740117500885,18,hands-127.jpg,DO,1,vpnl,2023-11-09_20h30.26.016,longbabyloc,2023.2.2,60.00797386125317,
,,,,,,,,487.5674133970024,18,hands-128.jpg,DO,1,vpnl,2023-11-09_20h30.26.016,longbabyloc,2023.2.2,60.00797386125317,
,,,,,,,,488.0673797990021,19,blank-129.jpg,DO,1,vpnl,2023-11-09_20h30.26.016,longbabyloc,2023.2.2,60.00797386125317,
,,,,,,,,488.5675694219972,19,blank-130.jpg,DO,1,vpnl,2023-11-09_20h30.26.016,longbabyloc,2023.2.2,60.00797386125317,
,,,,,,,,489.06740640700446,19,blank-131.jpg,DO,1,vpnl,2023-11-09_20h30.26.016,longbabyloc,2023.2.2,60.00797386125317,
,,,,,,,,489.5674365730083,19,blank-132.jpg,DO,1,vpnl,2023-11-09_20h30.26.016,longbabyloc,2023.2.2,60.00797386125317,
,,,,,,,,490.06744861000334,19,blank-133.jpg,DO,1,vpnl,2023-11-09_20h30.26.016,longbabyloc,2023.2.2,60.00797386125317,
,,,,,,,,490.56741187399894,19,blank-134.jpg,DO,1,vpnl,2023-11-09_20h30.26.016,longbabyloc,2023.2.2,60.00797386125317,
,,,,,,,,491.0673379020009,19,blank-135.jpg,DO,1,vpnl,2023-11-09_20h30.26.016,longbabyloc,2023.2.2,60.00797386125317,
,,,,,,,,491.56736017399817,19,blank-136.jpg,DO,1,vpnl,2023-11-09_20h30.26.016,longbabyloc,2023.2.2,60.00797386125317,
,,,,,,,,492.0673808420106,20,cars-121.jpg,DO,1,vpnl,2023-11-09_20h30.26.016,longbabyloc,2023.2.2,60.00797386125317,
,,,,,,,,492.5672936220071,20,cars-122.jpg,DO,1,vpnl,2023-11-09_20h30.26.016,longbabyloc,2023.2.2,60.00797386125317,
,,,,,,,,493.06762125500245,20,cars-123.jpg,DO,1,vpnl,2023-11-09_20h30.26.016,longbabyloc,2023.2.2,60.00797386125317,
,,,,,,,,493.5674158979964,20,cars-124.jpg,DO,1,vpnl,2023-11-09_20h30.26.016,longbabyloc,2023.2.2,60.00797386125317,
,,,,,,,,494.0675292130036,20,cars-125.jpg,DO,1,vpnl,2023-11-09_20h30.26.016,longbabyloc,2023.2.2,60.00797386125317,
,,,,,,,,494.5673695930018,20,cars-126.jpg,DO,1,vpnl,2023-11-09_20h30.26.016,longbabyloc,2023.2.2,60.00797386125317,
,,,,,,,,495.06778351200046,20,cars-127.jpg,DO,1,vpnl,2023-11-09_20h30.26.016,longbabyloc,2023.2.2,60.00797386125317,
,,,,,,,,495.5674280490057,20,cars-128.jpg,DO,1,vpnl,2023-11-09_20h30.26.016,longbabyloc,2023.2.2,60.00797386125317,
,,,,,,,,496.0673098420084,21,faces-121.jpg,DO,1,vpnl,2023-11-09_20h30.26.016,longbabyloc,2023.2.2,60.00797386125317,
,,,,,,,,496.56727762099763,21,faces-122.jpg,DO,1,vpnl,2023-11-09_20h30.26.016,longbabyloc,2023.2.2,60.00797386125317,
,,,,,,,,497.06715195500874,21,faces-123.jpg,DO,1,vpnl,2023-11-09_20h30.26.016,longbabyloc,2023.2.2,60.00797386125317,
,,,,,,,,497.5674371960049,21,faces-124.jpg,DO,1,vpnl,2023-11-09_20h30.26.016,longbabyloc,2023.2.2,60.00797386125317,
,,,,,,,,498.0672324190091,21,faces-125.jpg,DO,1,vpnl,2023-11-09_20h30.26.016,longbabyloc,2023.2.2,60.00797386125317,
,,,,,,,,498.56721016499796,21,faces-126.jpg,DO,1,vpnl,2023-11-09_20h30.26.016,longbabyloc,2023.2.2,60.00797386125317,
,,,,,,,,499.06720697799756,21,faces-127.jpg,DO,1,vpnl,2023-11-09_20h30.26.016,longbabyloc,2023.2.2,60.00797386125317,
,,,,,,,,499.5673275029985,21,faces-128.jpg,DO,1,vpnl,2023-11-09_20h30.26.016,longbabyloc,2023.2.2,60.00797386125317,
,,,,,,,,500.06715417800297,22,blank-137.jpg,DO,1,vpnl,2023-11-09_20h30.26.016,longbabyloc,2023.2.2,60.00797386125317,
,,,,,,,,500.5671568070102,22,blank-138.jpg,DO,1,vpnl,2023-11-09_20h30.26.016,longbabyloc,2023.2.2,60.00797386125317,
,,,,,,,,501.0671286900033,22,blank-139.jpg,DO,1,vpnl,2023-11-09_20h30.26.016,longbabyloc,2023.2.2,60.00797386125317,
,,,,,,,,501.5671878060093,22,blank-140.jpg,DO,1,vpnl,2023-11-09_20h30.26.016,longbabyloc,2023.2.2,60.00797386125317,
,,,,,,,,502.0671688900038,22,blank-141.jpg,DO,1,vpnl,2023-11-09_20h30.26.016,longbabyloc,2023.2.2,60.00797386125317,
,,,,,,,,502.5673196849966,22,blank-142.jpg,DO,1,vpnl,2023-11-09_20h30.26.016,longbabyloc,2023.2.2,60.00797386125317,
,,,,,,,,503.0671084790083,22,blank-143.jpg,DO,1,vpnl,2023-11-09_20h30.26.016,longbabyloc,2023.2.2,60.00797386125317,
,,,,,,,,503.567219967008,22,blank-144.jpg,DO,1,vpnl,2023-11-09_20h30.26.016,longbabyloc,2023.2.2,60.00797386125317,
,,,,,,,,504.06717954699707,23,cars-129.jpg,DO,1,vpnl,2023-11-09_20h30.26.016,longbabyloc,2023.2.2,60.00797386125317,
,,,,,,,,504.56720912300807,23,cars-130.jpg,DO,1,vpnl,2023-11-09_20h30.26.016,longbabyloc,2023.2.2,60.00797386125317,
,,,,,,,,505.06709943400347,23,cars-131.jpg,DO,1,vpnl,2023-11-09_20h30.26.016,longbabyloc,2023.2.2,60.00797386125317,
,,,,,,,,505.5674778070097,23,cars-132.jpg,DO,1,vpnl,2023-11-09_20h30.26.016,longbabyloc,2023.2.2,60.00797386125317,
,,,,,,,,506.0671367550094,23,cars-133.jpg,DO,1,vpnl,2023-11-09_20h30.26.016,longbabyloc,2023.2.2,60.00797386125317,
,,,,,,,,506.56694937900465,23,cars-134.jpg,DO,1,vpnl,2023-11-09_20h30.26.016,longbabyloc,2023.2.2,60.00797386125317,
,,,,,,,,507.06704354000976,23,cars-135.jpg,DO,1,vpnl,2023-11-09_20h30.26.016,longbabyloc,2023.2.2,60.00797386125317,
,,,,,,,,507.5670265360095,23,cars-136.jpg,DO,1,vpnl,2023-11-09_20h30.26.016,longbabyloc,2023.2.2,60.00797386125317,
,,,,,,,,508.06704772599915,24,hands-129.jpg,DO,1,vpnl,2023-11-09_20h30.26.016,longbabyloc,2023.2.2,60.00797386125317,
,,,,,,,,508.5669877580076,24,hands-130.jpg,DO,1,vpnl,2023-11-09_20h30.26.016,longbabyloc,2023.2.2,60.00797386125317,
,,,,,,,,509.0669905990071,24,hands-131.jpg,DO,1,vpnl,2023-11-09_20h30.26.016,longbabyloc,2023.2.2,60.00797386125317,
,,,,,,,,509.5673086739989,24,hands-132.jpg,DO,1,vpnl,2023-11-09_20h30.26.016,longbabyloc,2023.2.2,60.00797386125317,
,,,,,,,,510.06714276400453,24,hands-133.jpg,DO,1,vpnl,2023-11-09_20h30.26.016,longbabyloc,2023.2.2,60.00797386125317,
,,,,,,,,510.56695837300504,24,hands-134.jpg,DO,1,vpnl,2023-11-09_20h30.26.016,longbabyloc,2023.2.2,60.00797386125317,
,,,,,,,,511.06705696400604,24,hands-135.jpg,DO,1,vpnl,2023-11-09_20h30.26.016,longbabyloc,2023.2.2,60.00797386125317,
,,,,,,,,511.5668870630034,24,hands-136.jpg,DO,1,vpnl,2023-11-09_20h30.26.016,longbabyloc,2023.2.2,60.00797386125317,
,,,,,,,,512.067040673006,25,scenes-129.jpg,DO,1,vpnl,2023-11-09_20h30.26.016,longbabyloc,2023.2.2,60.00797386125317,
,,,,,,,,512.5669661900029,25,scenes-130.jpg,DO,1,vpnl,2023-11-09_20h30.26.016,longbabyloc,2023.2.2,60.00797386125317,
,,,,,,,,513.0670087690087,25,scenes-131.jpg,DO,1,vpnl,2023-11-09_20h30.26.016,longbabyloc,2023.2.2,60.00797386125317,
,,,,,,,,513.5669112309988,25,scenes-132.jpg,DO,1,vpnl,2023-11-09_20h30.26.016,longbabyloc,2023.2.2,60.00797386125317,
,,,,,,,,514.0669984550041,25,scenes-133.jpg,DO,1,vpnl,2023-11-09_20h30.26.016,longbabyloc,2023.2.2,60.00797386125317,
,,,,,,,,514.5669572750048,25,scenes-134.jpg,DO,1,vpnl,2023-11-09_20h30.26.016,longbabyloc,2023.2.2,60.00797386125317,
,,,,,,,,515.0669541320094,25,scenes-135.jpg,DO,1,vpnl,2023-11-09_20h30.26.016,longbabyloc,2023.2.2,60.00797386125317,
,,,,,,,,515.5669455970055,25,scenes-136.jpg,DO,1,vpnl,2023-11-09_20h30.26.016,longbabyloc,2023.2.2,60.00797386125317,
,,,,,,,,516.0669420890044,26,faces-129.jpg,DO,1,vpnl,2023-11-09_20h30.26.016,longbabyloc,2023.2.2,60.00797386125317,
,,,,,,,,516.5668472929974,26,faces-130.jpg,DO,1,vpnl,2023-11-09_20h30.26.016,longbabyloc,2023.2.2,60.00797386125317,
,,,,,,,,517.0667425889987,26,faces-131.jpg,DO,1,vpnl,2023-11-09_20h30.26.016,longbabyloc,2023.2.2,60.00797386125317,
,,,,,,,,517.566866825,26,faces-132.jpg,DO,1,vpnl,2023-11-09_20h30.26.016,longbabyloc,2023.2.2,60.00797386125317,
,,,,,,,,518.0668369170016,26,faces-133.jpg,DO,1,vpnl,2023-11-09_20h30.26.016,longbabyloc,2023.2.2,60.00797386125317,
,,,,,,,,518.5668855980039,26,faces-134.jpg,DO,1,vpnl,2023-11-09_20h30.26.016,longbabyloc,2023.2.2,60.00797386125317,
,,,,,,,,519.0704255500023,26,faces-135.jpg,DO,1,vpnl,2023-11-09_20h30.26.016,longbabyloc,2023.2.2,60.00797386125317,
,,,,,,,,519.5701980260055,26,faces-136.jpg,DO,1,vpnl,2023-11-09_20h30.26.016,longbabyloc,2023.2.2,60.00797386125317,
,,,,,,,,520.0701738610078,27,scenes-137.jpg,DO,1,vpnl,2023-11-09_20h30.26.016,longbabyloc,2023.2.2,60.00797386125317,
,,,,,,,,520.5680687490094,27,scenes-138.jpg,DO,1,vpnl,2023-11-09_20h30.26.016,longbabyloc,2023.2.2,60.00797386125317,
,,,,,,,,521.0668232400058,27,scenes-139.jpg,DO,1,vpnl,2023-11-09_20h30.26.016,longbabyloc,2023.2.2,60.00797386125317,
,,,,,,,,521.5667338810017,27,scenes-140.jpg,DO,1,vpnl,2023-11-09_20h30.26.016,longbabyloc,2023.2.2,60.00797386125317,
,,,,,,,,522.0667056740058,27,scenes-141.jpg,DO,1,vpnl,2023-11-09_20h30.26.016,longbabyloc,2023.2.2,60.00797386125317,
,,,,,,,,522.5668071539985,27,scenes-142.jpg,DO,1,vpnl,2023-11-09_20h30.26.016,longbabyloc,2023.2.2,60.00797386125317,
,,,,,,,,523.0668402400042,27,scenes-143.jpg,DO,1,vpnl,2023-11-09_20h30.26.016,longbabyloc,2023.2.2,60.00797386125317,
,,,,,,,,523.566724807999,27,scenes-144.jpg,DO,1,vpnl,2023-11-09_20h30.26.016,longbabyloc,2023.2.2,60.00797386125317,
,,,,,,,,524.0666427030083,28,blank-1.jpg,DO,1,vpnl,2023-11-09_20h30.26.016,longbabyloc,2023.2.2,60.00797386125317,
,,,,,,,,524.5667565059994,28,blank-2.jpg,DO,1,vpnl,2023-11-09_20h30.26.016,longbabyloc,2023.2.2,60.00797386125317,
,,,,,,,,525.0667838320078,28,blank-3.jpg,DO,1,vpnl,2023-11-09_20h30.26.016,longbabyloc,2023.2.2,60.00797386125317,
,,,,,,,,525.5668012530077,28,blank-4.jpg,DO,1,vpnl,2023-11-09_20h30.26.016,longbabyloc,2023.2.2,60.00797386125317,
,,,,,,,,526.0665661050007,28,blank-5.jpg,DO,1,vpnl,2023-11-09_20h30.26.016,longbabyloc,2023.2.2,60.00797386125317,
,,,,,,,,526.5670544340101,28,blank-6.jpg,DO,1,vpnl,2023-11-09_20h30.26.016,longbabyloc,2023.2.2,60.00797386125317,
,,,,,,,,527.066730134,28,blank-7.jpg,DO,1,vpnl,2023-11-09_20h30.26.016,longbabyloc,2023.2.2,60.00797386125317,
,,,,,,,,527.566581489009,28,blank-8.jpg,DO,1,vpnl,2023-11-09_20h30.26.016,longbabyloc,2023.2.2,60.00797386125317,
,,,,,,,,528.0666470860015,29,cars-137.jpg,DO,1,vpnl,2023-11-09_20h30.26.016,longbabyloc,2023.2.2,60.00797386125317,
,,,,,,,,528.5666406149976,29,cars-138.jpg,DO,1,vpnl,2023-11-09_20h30.26.016,longbabyloc,2023.2.2,60.00797386125317,
,,,,,,,,529.0667288900004,29,cars-139.jpg,DO,1,vpnl,2023-11-09_20h30.26.016,longbabyloc,2023.2.2,60.00797386125317,
,,,,,,,,529.5666740750021,29,cars-140.jpg,DO,1,vpnl,2023-11-09_20h30.26.016,longbabyloc,2023.2.2,60.00797386125317,
,,,,,,,,530.0666389390099,29,cars-141.jpg,DO,1,vpnl,2023-11-09_20h30.26.016,longbabyloc,2023.2.2,60.00797386125317,
,,,,,,,,530.5666082009993,29,cars-142.jpg,DO,1,vpnl,2023-11-09_20h30.26.016,longbabyloc,2023.2.2,60.00797386125317,
,,,,,,,,531.0667536340043,29,cars-143.jpg,DO,1,vpnl,2023-11-09_20h30.26.016,longbabyloc,2023.2.2,60.00797386125317,
,,,,,,,,531.5666150720062,29,cars-144.jpg,DO,1,vpnl,2023-11-09_20h30.26.016,longbabyloc,2023.2.2,60.00797386125317,
,,,,,,,,532.0664752230077,30,faces-137.jpg,DO,1,vpnl,2023-11-09_20h30.26.016,longbabyloc,2023.2.2,60.00797386125317,
,,,,,,,,532.5665589450073,30,faces-138.jpg,DO,1,vpnl,2023-11-09_20h30.26.016,longbabyloc,2023.2.2,60.00797386125317,
,,,,,,,,533.066692088003,30,faces-139.jpg,DO,1,vpnl,2023-11-09_20h30.26.016,longbabyloc,2023.2.2,60.00797386125317,
,,,,,,,,533.5666353580018,30,faces-140.jpg,DO,1,vpnl,2023-11-09_20h30.26.016,longbabyloc,2023.2.2,60.00797386125317,
,,,,,,,,534.0664783140091,30,faces-141.jpg,DO,1,vpnl,2023-11-09_20h30.26.016,longbabyloc,2023.2.2,60.00797386125317,
,,,,,,,,534.5665745050064,30,faces-142.jpg,DO,1,vpnl,2023-11-09_20h30.26.016,longbabyloc,2023.2.2,60.00797386125317,
,,,,,,,,535.0665117919998,30,faces-143.jpg,DO,1,vpnl,2023-11-09_20h30.26.016,longbabyloc,2023.2.2,60.00797386125317,
,,,,,,,,535.5666299860022,30,faces-144.jpg,DO,1,vpnl,2023-11-09_20h30.26.016,longbabyloc,2023.2.2,60.00797386125317,
,,,,,,,,536.0665197659982,31,hands-137.jpg,DO,1,vpnl,2023-11-09_20h30.26.016,longbabyloc,2023.2.2,60.00797386125317,
,,,,,,,,536.5665326919989,31,hands-138.jpg,DO,1,vpnl,2023-11-09_20h30.26.016,longbabyloc,2023.2.2,60.00797386125317,
,,,,,,,,537.0664634100103,31,hands-139.jpg,DO,1,vpnl,2023-11-09_20h30.26.016,longbabyloc,2023.2.2,60.00797386125317,
,,,,,,,,537.5671277860092,31,hands-140.jpg,DO,1,vpnl,2023-11-09_20h30.26.016,longbabyloc,2023.2.2,60.00797386125317,
,,,,,,,,538.0665772299981,31,hands-141.jpg,DO,1,vpnl,2023-11-09_20h30.26.016,longbabyloc,2023.2.2,60.00797386125317,
,,,,,,,,538.5664399050002,31,hands-142.jpg,DO,1,vpnl,2023-11-09_20h30.26.016,longbabyloc,2023.2.2,60.00797386125317,
,,,,,,,,539.0664603519981,31,hands-143.jpg,DO,1,vpnl,2023-11-09_20h30.26.016,longbabyloc,2023.2.2,60.00797386125317,
,,,,,,,,539.5664262860082,31,hands-144.jpg,DO,1,vpnl,2023-11-09_20h30.26.016,longbabyloc,2023.2.2,60.00797386125317,
,,,,,,,,540.0666518270009,32,faces-1.jpg,DO,1,vpnl,2023-11-09_20h30.26.016,longbabyloc,2023.2.2,60.00797386125317,
,,,,,,,,540.5701179850003,32,faces-2.jpg,DO,1,vpnl,2023-11-09_20h30.26.016,longbabyloc,2023.2.2,60.00797386125317,
,,,,,,,,541.0664378000074,32,faces-3.jpg,DO,1,vpnl,2023-11-09_20h30.26.016,longbabyloc,2023.2.2,60.00797386125317,
,,,,,,,,541.5663444350066,32,faces-4.jpg,DO,1,vpnl,2023-11-09_20h30.26.016,longbabyloc,2023.2.2,60.00797386125317,
,,,,,,,,542.066447833,32,faces-5.jpg,DO,1,vpnl,2023-11-09_20h30.26.016,longbabyloc,2023.2.2,60.00797386125317,
,,,,,,,,542.5664446940063,32,faces-6.jpg,DO,1,vpnl,2023-11-09_20h30.26.016,longbabyloc,2023.2.2,60.00797386125317,
,,,,,,,,543.06645350701,32,faces-7.jpg,DO,1,vpnl,2023-11-09_20h30.26.016,longbabyloc,2023.2.2,60.00797386125317,
,,,,,,,,543.566356041003,32,faces-8.jpg,DO,1,vpnl,2023-11-09_20h30.26.016,longbabyloc,2023.2.2,60.00797386125317,
,,,,,,,,544.0663806399971,33,scenes-1.jpg,DO,1,vpnl,2023-11-09_20h30.26.016,longbabyloc,2023.2.2,60.00797386125317,
,,,,,,,,544.5665065430076,33,scenes-2.jpg,DO,1,vpnl,2023-11-09_20h30.26.016,longbabyloc,2023.2.2,60.00797386125317,
,,,,,,,,545.0665564160008,33,scenes-3.jpg,DO,1,vpnl,2023-11-09_20h30.26.016,longbabyloc,2023.2.2,60.00797386125317,
,,,,,,,,545.5663685920008,33,scenes-4.jpg,DO,1,vpnl,2023-11-09_20h30.26.016,longbabyloc,2023.2.2,60.00797386125317,
,,,,,,,,546.066194198007,33,scenes-5.jpg,DO,1,vpnl,2023-11-09_20h30.26.016,longbabyloc,2023.2.2,60.00797386125317,
,,,,,,,,546.5669425360102,33,scenes-6.jpg,DO,1,vpnl,2023-11-09_20h30.26.016,longbabyloc,2023.2.2,60.00797386125317,
,,,,,,,,547.0663412340073,33,scenes-7.jpg,DO,1,vpnl,2023-11-09_20h30.26.016,longbabyloc,2023.2.2,60.00797386125317,
,,,,,,,,547.5662486740039,33,scenes-8.jpg,DO,1,vpnl,2023-11-09_20h30.26.016,longbabyloc,2023.2.2,60.00797386125317,
,,,,,,,,548.0661832059996,34,cars-1.jpg,DO,1,vpnl,2023-11-09_20h30.26.016,longbabyloc,2023.2.2,60.00797386125317,
,,,,,,,,548.5662714540085,34,cars-2.jpg,DO,1,vpnl,2023-11-09_20h30.26.016,longbabyloc,2023.2.2,60.00797386125317,
,,,,,,,,549.0663142990088,34,cars-3.jpg,DO,1,vpnl,2023-11-09_20h30.26.016,longbabyloc,2023.2.2,60.00797386125317,
,,,,,,,,549.5664816549979,34,cars-4.jpg,DO,1,vpnl,2023-11-09_20h30.26.016,longbabyloc,2023.2.2,60.00797386125317,
,,,,,,,,550.0664010330074,34,cars-5.jpg,DO,1,vpnl,2023-11-09_20h30.26.016,longbabyloc,2023.2.2,60.00797386125317,
,,,,,,,,550.5662223350082,34,cars-6.jpg,DO,1,vpnl,2023-11-09_20h30.26.016,longbabyloc,2023.2.2,60.00797386125317,
,,,,,,,,551.0662353920052,34,cars-7.jpg,DO,1,vpnl,2023-11-09_20h30.26.016,longbabyloc,2023.2.2,60.00797386125317,
,,,,,,,,551.5663647120091,34,cars-8.jpg,DO,1,vpnl,2023-11-09_20h30.26.016,longbabyloc,2023.2.2,60.00797386125317,
,,,,,,,,552.0661456649977,35,blank-9.jpg,DO,1,vpnl,2023-11-09_20h30.26.016,longbabyloc,2023.2.2,60.00797386125317,
,,,,,,,,552.5661783350079,35,blank-10.jpg,DO,1,vpnl,2023-11-09_20h30.26.016,longbabyloc,2023.2.2,60.00797386125317,
,,,,,,,,553.0664133399987,35,blank-11.jpg,DO,1,vpnl,2023-11-09_20h30.26.016,longbabyloc,2023.2.2,60.00797386125317,
,,,,,,,,553.566267533999,35,blank-12.jpg,DO,1,vpnl,2023-11-09_20h30.26.016,longbabyloc,2023.2.2,60.00797386125317,
,,,,,,,,554.0662245230051,35,blank-13.jpg,DO,1,vpnl,2023-11-09_20h30.26.016,longbabyloc,2023.2.2,60.00797386125317,
,,,,,,,,554.5663024300011,35,blank-14.jpg,DO,1,vpnl,2023-11-09_20h30.26.016,longbabyloc,2023.2.2,60.00797386125317,
,,,,,,,,555.0661706820101,35,blank-15.jpg,DO,1,vpnl,2023-11-09_20h30.26.016,longbabyloc,2023.2.2,60.00797386125317,
,,,,,,,,555.5663138320087,35,blank-16.jpg,DO,1,vpnl,2023-11-09_20h30.26.016,longbabyloc,2023.2.2,60.00797386125317,
,,,,,,,,556.066226548006,36,hands-1.jpg,DO,1,vpnl,2023-11-09_20h30.26.016,longbabyloc,2023.2.2,60.00797386125317,
,,,,,,,,556.5661826240103,36,hands-2.jpg,DO,1,vpnl,2023-11-09_20h30.26.016,longbabyloc,2023.2.2,60.00797386125317,
,,,,,,,,557.0661075430107,36,hands-3.jpg,DO,1,vpnl,2023-11-09_20h30.26.016,longbabyloc,2023.2.2,60.00797386125317,
,,,,,,,,557.5665998690092,36,hands-4.jpg,DO,1,vpnl,2023-11-09_20h30.26.016,longbabyloc,2023.2.2,60.00797386125317,
,,,,,,,,558.0661022569984,36,hands-5.jpg,DO,1,vpnl,2023-11-09_20h30.26.016,longbabyloc,2023.2.2,60.00797386125317,
,,,,,,,,558.5661650630063,36,hands-6.jpg,DO,1,vpnl,2023-11-09_20h30.26.016,longbabyloc,2023.2.2,60.00797386125317,
,,,,,,,,559.0661434119975,36,hands-7.jpg,DO,1,vpnl,2023-11-09_20h30.26.016,longbabyloc,2023.2.2,60.00797386125317,
,,,,,,,,559.5660338629968,36,hands-8.jpg,DO,1,vpnl,2023-11-09_20h30.26.016,longbabyloc,2023.2.2,60.00797386125317,
,,,,,,,,560.0662289050088,37,blank-17.jpg,DO,1,vpnl,2023-11-09_20h30.26.016,longbabyloc,2023.2.2,60.00797386125317,
,,,,,,,,560.5662507980014,37,blank-18.jpg,DO,1,vpnl,2023-11-09_20h30.26.016,longbabyloc,2023.2.2,60.00797386125317,
,,,,,,,,561.0666665419994,37,blank-19.jpg,DO,1,vpnl,2023-11-09_20h30.26.016,longbabyloc,2023.2.2,60.00797386125317,
,,,,,,,,561.5659482269984,37,blank-20.jpg,DO,1,vpnl,2023-11-09_20h30.26.016,longbabyloc,2023.2.2,60.00797386125317,
,,,,,,,,562.0659874840057,37,blank-21.jpg,DO,1,vpnl,2023-11-09_20h30.26.016,longbabyloc,2023.2.2,60.00797386125317,
,,,,,,,,562.5660481380037,37,blank-22.jpg,DO,1,vpnl,2023-11-09_20h30.26.016,longbabyloc,2023.2.2,60.00797386125317,
,,,,,,,,563.0662478110025,37,blank-23.jpg,DO,1,vpnl,2023-11-09_20h30.26.016,longbabyloc,2023.2.2,60.00797386125317,
,,,,,,,,563.5660567660088,37,blank-24.jpg,DO,1,vpnl,2023-11-09_20h30.26.016,longbabyloc,2023.2.2,60.00797386125317,
,,,,,,,,564.0658720210049,38,cars-9.jpg,DO,1,vpnl,2023-11-09_20h30.26.016,longbabyloc,2023.2.2,60.00797386125317,
,,,,,,,,564.5660624029988,38,cars-10.jpg,DO,1,vpnl,2023-11-09_20h30.26.016,longbabyloc,2023.2.2,60.00797386125317,
,,,,,,,,565.0660622720025,38,cars-11.jpg,DO,1,vpnl,2023-11-09_20h30.26.016,longbabyloc,2023.2.2,60.00797386125317,
,,,,,,,,565.5659963409998,38,cars-12.jpg,DO,1,vpnl,2023-11-09_20h30.26.016,longbabyloc,2023.2.2,60.00797386125317,
,,,,,,,,566.065909529003,38,cars-13.jpg,DO,1,vpnl,2023-11-09_20h30.26.016,longbabyloc,2023.2.2,60.00797386125317,
,,,,,,,,566.5659095070005,38,cars-14.jpg,DO,1,vpnl,2023-11-09_20h30.26.016,longbabyloc,2023.2.2,60.00797386125317,
,,,,,,,,567.06608710601,38,cars-15.jpg,DO,1,vpnl,2023-11-09_20h30.26.016,longbabyloc,2023.2.2,60.00797386125317,
,,,,,,,,567.5659404970065,38,cars-16.jpg,DO,1,vpnl,2023-11-09_20h30.26.016,longbabyloc,2023.2.2,60.00797386125317,
,,,,,,,,568.0659556280007,39,faces-9.jpg,DO,1,vpnl,2023-11-09_20h30.26.016,longbabyloc,2023.2.2,60.00797386125317,
,,,,,,,,568.5658888949984,39,faces-10.jpg,DO,1,vpnl,2023-11-09_20h30.26.016,longbabyloc,2023.2.2,60.00797386125317,
,,,,,,,,569.0660053190077,39,faces-11.jpg,DO,1,vpnl,2023-11-09_20h30.26.016,longbabyloc,2023.2.2,60.00797386125317,
,,,,,,,,569.5659918290039,39,faces-12.jpg,DO,1,vpnl,2023-11-09_20h30.26.016,longbabyloc,2023.2.2,60.00797386125317,
,,,,,,,,570.0661725440004,39,faces-13.jpg,DO,1,vpnl,2023-11-09_20h30.26.016,longbabyloc,2023.2.2,60.00797386125317,
,,,,,,,,570.5658356869972,39,faces-14.jpg,DO,1,vpnl,2023-11-09_20h30.26.016,longbabyloc,2023.2.2,60.00797386125317,
,,,,,,,,571.0660184890003,39,faces-15.jpg,DO,1,vpnl,2023-11-09_20h30.26.016,longbabyloc,2023.2.2,60.00797386125317,
,,,,,,,,571.5659725330042,39,faces-16.jpg,DO,1,vpnl,2023-11-09_20h30.26.016,longbabyloc,2023.2.2,60.00797386125317,
,,,,,,,,572.0657725369965,40,scenes-9.jpg,DO,1,vpnl,2023-11-09_20h30.26.016,longbabyloc,2023.2.2,60.00797386125317,
,,,,,,,,572.5658392960031,40,scenes-10.jpg,DO,1,vpnl,2023-11-09_20h30.26.016,longbabyloc,2023.2.2,60.00797386125317,
,,,,,,,,573.0659482140036,40,scenes-11.jpg,DO,1,vpnl,2023-11-09_20h30.26.016,longbabyloc,2023.2.2,60.00797386125317,
,,,,,,,,573.5661172670079,40,scenes-12.jpg,DO,1,vpnl,2023-11-09_20h30.26.016,longbabyloc,2023.2.2,60.00797386125317,
,,,,,,,,574.0658451130003,40,scenes-13.jpg,DO,1,vpnl,2023-11-09_20h30.26.016,longbabyloc,2023.2.2,60.00797386125317,
,,,,,,,,574.5659399200085,40,scenes-14.jpg,DO,1,vpnl,2023-11-09_20h30.26.016,longbabyloc,2023.2.2,60.00797386125317,
,,,,,,,,575.065852863001,40,scenes-15.jpg,DO,1,vpnl,2023-11-09_20h30.26.016,longbabyloc,2023.2.2,60.00797386125317,
,,,,,,,,575.5657005130051,40,scenes-16.jpg,DO,1,vpnl,2023-11-09_20h30.26.016,longbabyloc,2023.2.2,60.00797386125317,
,,,,,,,,576.0659368290071,41,hands-9.jpg,DO,1,vpnl,2023-11-09_20h30.26.016,longbabyloc,2023.2.2,60.00797386125317,
,,,,,,,,576.5657544200076,41,hands-10.jpg,DO,1,vpnl,2023-11-09_20h30.26.016,longbabyloc,2023.2.2,60.00797386125317,
,,,,,,,,577.0657528380107,41,hands-11.jpg,DO,1,vpnl,2023-11-09_20h30.26.016,longbabyloc,2023.2.2,60.00797386125317,
,,,,,,,,577.5656978159968,41,hands-12.jpg,DO,1,vpnl,2023-11-09_20h30.26.016,longbabyloc,2023.2.2,60.00797386125317,
,,,,,,,,578.0658450540068,41,hands-13.jpg,DO,1,vpnl,2023-11-09_20h30.26.016,longbabyloc,2023.2.2,60.00797386125317,
,,,,,,,,578.5660485020053,41,hands-14.jpg,DO,1,vpnl,2023-11-09_20h30.26.016,longbabyloc,2023.2.2,60.00797386125317,
,,,,,,,,579.0657480730006,41,hands-15.jpg,DO,1,vpnl,2023-11-09_20h30.26.016,longbabyloc,2023.2.2,60.00797386125317,
,,,,,,,,579.5657427580009,41,hands-16.jpg,DO,1,vpnl,2023-11-09_20h30.26.016,longbabyloc,2023.2.2,60.00797386125317,
,,,,,,,,580.0657613850053,42,blank-25.jpg,DO,1,vpnl,2023-11-09_20h30.26.016,longbabyloc,2023.2.2,60.00797386125317,
,,,,,,,,580.5660902380041,42,blank-26.jpg,DO,1,vpnl,2023-11-09_20h30.26.016,longbabyloc,2023.2.2,60.00797386125317,
,,,,,,,,581.0658136220009,42,blank-27.jpg,DO,1,vpnl,2023-11-09_20h30.26.016,longbabyloc,2023.2.2,60.00797386125317,
,,,,,,,,581.5656085390074,42,blank-28.jpg,DO,1,vpnl,2023-11-09_20h30.26.016,longbabyloc,2023.2.2,60.00797386125317,
,,,,,,,,582.0657018839993,42,blank-29.jpg,DO,1,vpnl,2023-11-09_20h30.26.016,longbabyloc,2023.2.2,60.00797386125317,
,,,,,,,,582.5655929150089,42,blank-30.jpg,DO,1,vpnl,2023-11-09_20h30.26.016,longbabyloc,2023.2.2,60.00797386125317,
,,,,,,,,583.0657299900049,42,blank-31.jpg,DO,1,vpnl,2023-11-09_20h30.26.016,longbabyloc,2023.2.2,60.00797386125317,
,,,,,,,,583.5656894279964,42,blank-32.jpg,DO,1,vpnl,2023-11-09_20h30.26.016,longbabyloc,2023.2.2,60.00797386125317,
,,,,,,,,584.065583750009,43,scenes-17.jpg,DO,1,vpnl,2023-11-09_20h30.26.016,longbabyloc,2023.2.2,60.00797386125317,
,,,,,,,,584.5655332290044,43,scenes-18.jpg,DO,1,vpnl,2023-11-09_20h30.26.016,longbabyloc,2023.2.2,60.00797386125317,
,,,,,,,,585.0655794610066,43,scenes-19.jpg,DO,1,vpnl,2023-11-09_20h30.26.016,longbabyloc,2023.2.2,60.00797386125317,
,,,,,,,,585.5656932050042,43,scenes-20.jpg,DO,1,vpnl,2023-11-09_20h30.26.016,longbabyloc,2023.2.2,60.00797386125317,
,,,,,,,,586.0655734710017,43,scenes-21.jpg,DO,1,vpnl,2023-11-09_20h30.26.016,longbabyloc,2023.2.2,60.00797386125317,
,,,,,,,,586.5654902149981,43,scenes-22.jpg,DO,1,vpnl,2023-11-09_20h30.26.016,longbabyloc,2023.2.2,60.00797386125317,
,,,,,,,,587.0655017000099,43,scenes-23.jpg,DO,1,vpnl,2023-11-09_20h30.26.016,longbabyloc,2023.2.2,60.00797386125317,
,,,,,,,,587.5655573590047,43,scenes-24.jpg,DO,1,vpnl,2023-11-09_20h30.26.016,longbabyloc,2023.2.2,60.00797386125317,
,,,,,,,,588.0655251090066,44,cars-17.jpg,DO,1,vpnl,2023-11-09_20h30.26.016,longbabyloc,2023.2.2,60.00797386125317,
,,,,,,,,588.5658339710062,44,cars-18.jpg,DO,1,vpnl,2023-11-09_20h30.26.016,longbabyloc,2023.2.2,60.00797386125317,
,,,,,,,,589.0655776130006,44,cars-19.jpg,DO,1,vpnl,2023-11-09_20h30.26.016,longbabyloc,2023.2.2,60.00797386125317,
,,,,,,,,589.5654686869966,44,cars-20.jpg,DO,1,vpnl,2023-11-09_20h30.26.016,longbabyloc,2023.2.2,60.00797386125317,
,,,,,,,,590.0656020070019,44,cars-21.jpg,DO,1,vpnl,2023-11-09_20h30.26.016,longbabyloc,2023.2.2,60.00797386125317,
,,,,,,,,590.5655748849967,44,cars-22.jpg,DO,1,vpnl,2023-11-09_20h30.26.016,longbabyloc,2023.2.2,60.00797386125317,
,,,,,,,,591.0655435030058,44,cars-23.jpg,DO,1,vpnl,2023-11-09_20h30.26.016,longbabyloc,2023.2.2,60.00797386125317,
,,,,,,,,591.5653854190023,44,cars-24.jpg,DO,1,vpnl,2023-11-09_20h30.26.016,longbabyloc,2023.2.2,60.00797386125317,
,,,,,,,,592.06533979901,45,hands-17.jpg,DO,1,vpnl,2023-11-09_20h30.26.016,longbabyloc,2023.2.2,60.00797386125317,
,,,,,,,,592.5655981699965,45,hands-18.jpg,DO,1,vpnl,2023-11-09_20h30.26.016,longbabyloc,2023.2.2,60.00797386125317,
,,,,,,,,593.0691059009987,45,hands-19.jpg,DO,1,vpnl,2023-11-09_20h30.26.016,longbabyloc,2023.2.2,60.00797386125317,
,,,,,,,,593.5654631650104,45,hands-20.jpg,DO,1,vpnl,2023-11-09_20h30.26.016,longbabyloc,2023.2.2,60.00797386125317,
,,,,,,,,594.0654021259979,45,hands-21.jpg,DO,1,vpnl,2023-11-09_20h30.26.016,longbabyloc,2023.2.2,60.00797386125317,
,,,,,,,,594.5655513730017,45,hands-22.jpg,DO,1,vpnl,2023-11-09_20h30.26.016,longbabyloc,2023.2.2,60.00797386125317,
,,,,,,,,595.0655996230053,45,hands-23.jpg,DO,1,vpnl,2023-11-09_20h30.26.016,longbabyloc,2023.2.2,60.00797386125317,
,,,,,,,,595.5656118650077,45,hands-24.jpg,DO,1,vpnl,2023-11-09_20h30.26.016,longbabyloc,2023.2.2,60.00797386125317,
,,,,,,,,596.0654319970054,46,faces-17.jpg,DO,1,vpnl,2023-11-09_20h30.26.016,longbabyloc,2023.2.2,60.00797386125317,
,,,,,,,,596.5652927080082,46,faces-18.jpg,DO,1,vpnl,2023-11-09_20h30.26.016,longbabyloc,2023.2.2,60.00797386125317,
,,,,,,,,597.0656241039978,46,faces-19.jpg,DO,1,vpnl,2023-11-09_20h30.26.016,longbabyloc,2023.2.2,60.00797386125317,
,,,,,,,,597.5653486360097,46,faces-20.jpg,DO,1,vpnl,2023-11-09_20h30.26.016,longbabyloc,2023.2.2,60.00797386125317,
,,,,,,,,598.065554685003,46,faces-21.jpg,DO,1,vpnl,2023-11-09_20h30.26.016,longbabyloc,2023.2.2,60.00797386125317,
,,,,,,,,598.565354174003,46,faces-22.jpg,DO,1,vpnl,2023-11-09_20h30.26.016,longbabyloc,2023.2.2,60.00797386125317,
,,,,,,,,599.065269521001,46,faces-23.jpg,DO,1,vpnl,2023-11-09_20h30.26.016,longbabyloc,2023.2.2,60.00797386125317,
,,,,,,,,599.5653630650049,46,faces-24.jpg,DO,1,vpnl,2023-11-09_20h30.26.016,longbabyloc,2023.2.2,60.00797386125317,
,,,,,,,,600.065364745009,47,hands-25.jpg,DO,1,vpnl,2023-11-09_20h30.26.016,longbabyloc,2023.2.2,60.00797386125317,
,,,,,,,,600.5652388099988,47,hands-26.jpg,DO,1,vpnl,2023-11-09_20h30.26.016,longbabyloc,2023.2.2,60.00797386125317,
,,,,,,,,601.0653955849994,47,hands-27.jpg,DO,1,vpnl,2023-11-09_20h30.26.016,longbabyloc,2023.2.2,60.00797386125317,
,,,,,,,,601.5654682140012,47,hands-28.jpg,DO,1,vpnl,2023-11-09_20h30.26.016,longbabyloc,2023.2.2,60.00797386125317,
,,,,,,,,602.0653226160066,47,hands-29.jpg,DO,1,vpnl,2023-11-09_20h30.26.016,longbabyloc,2023.2.2,60.00797386125317,
,,,,,,,,602.5653742480063,47,hands-30.jpg,DO,1,vpnl,2023-11-09_20h30.26.016,longbabyloc,2023.2.2,60.00797386125317,
,,,,,,,,603.065180702004,47,hands-31.jpg,DO,1,vpnl,2023-11-09_20h30.26.016,longbabyloc,2023.2.2,60.00797386125317,
,,,,,,,,603.565156156008,47,hands-32.jpg,DO,1,vpnl,2023-11-09_20h30.26.016,longbabyloc,2023.2.2,60.00797386125317,
,,,,,,,,604.0666651430074,48,faces-25.jpg,DO,1,vpnl,2023-11-09_20h30.26.016,longbabyloc,2023.2.2,60.00797386125317,
,,,,,,,,604.5652322340029,48,faces-26.jpg,DO,1,vpnl,2023-11-09_20h30.26.016,longbabyloc,2023.2.2,60.00797386125317,
,,,,,,,,605.0652937910054,48,faces-27.jpg,DO,1,vpnl,2023-11-09_20h30.26.016,longbabyloc,2023.2.2,60.00797386125317,
,,,,,,,,605.5651885100087,48,faces-28.jpg,DO,1,vpnl,2023-11-09_20h30.26.016,longbabyloc,2023.2.2,60.00797386125317,
,,,,,,,,606.065193870003,48,faces-29.jpg,DO,1,vpnl,2023-11-09_20h30.26.016,longbabyloc,2023.2.2,60.00797386125317,
,,,,,,,,606.565287674006,48,faces-30.jpg,DO,1,vpnl,2023-11-09_20h30.26.016,longbabyloc,2023.2.2,60.00797386125317,
,,,,,,,,607.0653318480036,48,faces-31.jpg,DO,1,vpnl,2023-11-09_20h30.26.016,longbabyloc,2023.2.2,60.00797386125317,
,,,,,,,,607.5650890179968,48,faces-32.jpg,DO,1,vpnl,2023-11-09_20h30.26.016,longbabyloc,2023.2.2,60.00797386125317,
,,,,,,,,608.0651184320013,49,cars-25.jpg,DO,1,vpnl,2023-11-09_20h30.26.016,longbabyloc,2023.2.2,60.00797386125317,
,,,,,,,,608.5651588150067,49,cars-26.jpg,DO,1,vpnl,2023-11-09_20h30.26.016,longbabyloc,2023.2.2,60.00797386125317,
,,,,,,,,609.0651779550099,49,cars-27.jpg,DO,1,vpnl,2023-11-09_20h30.26.016,longbabyloc,2023.2.2,60.00797386125317,
,,,,,,,,609.5654853460001,49,cars-28.jpg,DO,1,vpnl,2023-11-09_20h30.26.016,longbabyloc,2023.2.2,60.00797386125317,
,,,,,,,,610.0651461689995,49,cars-29.jpg,DO,1,vpnl,2023-11-09_20h30.26.016,longbabyloc,2023.2.2,60.00797386125317,
,,,,,,,,610.5651939590025,49,cars-30.jpg,DO,1,vpnl,2023-11-09_20h30.26.016,longbabyloc,2023.2.2,60.00797386125317,
,,,,,,,,611.0650961010106,49,cars-31.jpg,DO,1,vpnl,2023-11-09_20h30.26.016,longbabyloc,2023.2.2,60.00797386125317,
,,,,,,,,611.5650713119976,49,cars-32.jpg,DO,1,vpnl,2023-11-09_20h30.26.016,longbabyloc,2023.2.2,60.00797386125317,
,,,,,,,,612.0652473439986,50,scenes-25.jpg,DO,1,vpnl,2023-11-09_20h30.26.016,longbabyloc,2023.2.2,60.00797386125317,
,,,,,,,,612.5651517170045,50,scenes-26.jpg,DO,1,vpnl,2023-11-09_20h30.26.016,longbabyloc,2023.2.2,60.00797386125317,
,,,,,,,,613.0650981920044,50,scenes-27.jpg,DO,1,vpnl,2023-11-09_20h30.26.016,longbabyloc,2023.2.2,60.00797386125317,
,,,,,,,,613.5650480990007,50,scenes-28.jpg,DO,1,vpnl,2023-11-09_20h30.26.016,longbabyloc,2023.2.2,60.00797386125317,
,,,,,,,,614.0650750290079,50,scenes-29.jpg,DO,1,vpnl,2023-11-09_20h30.26.016,longbabyloc,2023.2.2,60.00797386125317,
,,,,,,,,614.5652480910067,50,scenes-30.jpg,DO,1,vpnl,2023-11-09_20h30.26.016,longbabyloc,2023.2.2,60.00797386125317,
,,,,,,,,615.0650504020014,50,scenes-31.jpg,DO,1,vpnl,2023-11-09_20h30.26.016,longbabyloc,2023.2.2,60.00797386125317,
,,,,,,,,615.565108751005,50,scenes-32.jpg,DO,1,vpnl,2023-11-09_20h30.26.016,longbabyloc,2023.2.2,60.00797386125317,
,,,,,,,,616.0650413590047,51,blank-33.jpg,DO,1,vpnl,2023-11-09_20h30.26.016,longbabyloc,2023.2.2,60.00797386125317,
,,,,,,,,616.5653694270004,51,blank-34.jpg,DO,1,vpnl,2023-11-09_20h30.26.016,longbabyloc,2023.2.2,60.00797386125317,
,,,,,,,,617.0649882419966,51,blank-35.jpg,DO,1,vpnl,2023-11-09_20h30.26.016,longbabyloc,2023.2.2,60.00797386125317,
,,,,,,,,617.5652276670007,51,blank-36.jpg,DO,1,vpnl,2023-11-09_20h30.26.016,longbabyloc,2023.2.2,60.00797386125317,
,,,,,,,,618.0649830850016,51,blank-37.jpg,DO,1,vpnl,2023-11-09_20h30.26.016,longbabyloc,2023.2.2,60.00797386125317,
,,,,,,,,618.5649255280005,51,blank-38.jpg,DO,1,vpnl,2023-11-09_20h30.26.016,longbabyloc,2023.2.2,60.00797386125317,
,,,,,,,,619.0650703700085,51,blank-39.jpg,DO,1,vpnl,2023-11-09_20h30.26.016,longbabyloc,2023.2.2,60.00797386125317,
,,,,,,,,619.5649537529971,51,blank-40.jpg,DO,1,vpnl,2023-11-09_20h30.26.016,longbabyloc,2023.2.2,60.00797386125317,
,,,,,,,,620.0652198230091,52,cars-33.jpg,DO,1,vpnl,2023-11-09_20h30.26.016,longbabyloc,2023.2.2,60.00797386125317,
,,,,,,,,620.5650618470099,52,cars-34.jpg,DO,1,vpnl,2023-11-09_20h30.26.016,longbabyloc,2023.2.2,60.00797386125317,
,,,,,,,,621.0649494079989,52,cars-35.jpg,DO,1,vpnl,2023-11-09_20h30.26.016,longbabyloc,2023.2.2,60.00797386125317,
,,,,,,,,621.5649876100069,52,cars-36.jpg,DO,1,vpnl,2023-11-09_20h30.26.016,longbabyloc,2023.2.2,60.00797386125317,
,,,,,,,,622.0649159360037,52,cars-37.jpg,DO,1,vpnl,2023-11-09_20h30.26.016,longbabyloc,2023.2.2,60.00797386125317,
,,,,,,,,622.5651435690088,52,cars-38.jpg,DO,1,vpnl,2023-11-09_20h30.26.016,longbabyloc,2023.2.2,60.00797386125317,
,,,,,,,,623.0649268030102,52,cars-39.jpg,DO,1,vpnl,2023-11-09_20h30.26.016,longbabyloc,2023.2.2,60.00797386125317,
,,,,,,,,623.5650041440094,52,cars-40.jpg,DO,1,vpnl,2023-11-09_20h30.26.016,longbabyloc,2023.2.2,60.00797386125317,
,,,,,,,,624.0652070020005,53,blank-41.jpg,DO,1,vpnl,2023-11-09_20h30.26.016,longbabyloc,2023.2.2,60.00797386125317,
,,,,,,,,624.5649259530037,53,blank-42.jpg,DO,1,vpnl,2023-11-09_20h30.26.016,longbabyloc,2023.2.2,60.00797386125317,
,,,,,,,,625.0648391770083,53,blank-43.jpg,DO,1,vpnl,2023-11-09_20h30.26.016,longbabyloc,2023.2.2,60.00797386125317,
,,,,,,,,625.5651328640088,53,blank-44.jpg,DO,1,vpnl,2023-11-09_20h30.26.016,longbabyloc,2023.2.2,60.00797386125317,
,,,,,,,,626.0647725699964,53,blank-45.jpg,DO,1,vpnl,2023-11-09_20h30.26.016,longbabyloc,2023.2.2,60.00797386125317,
,,,,,,,,626.5652566759964,53,blank-46.jpg,DO,1,vpnl,2023-11-09_20h30.26.016,longbabyloc,2023.2.2,60.00797386125317,
,,,,,,,,627.0648476350034,53,blank-47.jpg,DO,1,vpnl,2023-11-09_20h30.26.016,longbabyloc,2023.2.2,60.00797386125317,
,,,,,,,,627.5648058640072,53,blank-48.jpg,DO,1,vpnl,2023-11-09_20h30.26.016,longbabyloc,2023.2.2,60.00797386125317,
,,,,,,,,628.0647371250088,54,faces-33.jpg,DO,1,vpnl,2023-11-09_20h30.26.016,longbabyloc,2023.2.2,60.00797386125317,
,,,,,,,,628.5648682750034,54,faces-34.jpg,DO,1,vpnl,2023-11-09_20h30.26.016,longbabyloc,2023.2.2,60.00797386125317,
,,,,,,,,629.0648121170088,54,faces-35.jpg,DO,1,vpnl,2023-11-09_20h30.26.016,longbabyloc,2023.2.2,60.00797386125317,
,,,,,,,,629.56477244501,54,faces-36.jpg,DO,1,vpnl,2023-11-09_20h30.26.016,longbabyloc,2023.2.2,60.00797386125317,
,,,,,,,,630.0646981379978,54,faces-37.jpg,DO,1,vpnl,2023-11-09_20h30.26.016,longbabyloc,2023.2.2,60.00797386125317,
,,,,,,,,630.5648926680005,54,faces-38.jpg,DO,1,vpnl,2023-11-09_20h30.26.016,longbabyloc,2023.2.2,60.00797386125317,
,,,,,,,,631.0647369810031,54,faces-39.jpg,DO,1,vpnl,2023-11-09_20h30.26.016,longbabyloc,2023.2.2,60.00797386125317,
,,,,,,,,631.5646960160084,54,faces-40.jpg,DO,1,vpnl,2023-11-09_20h30.26.016,longbabyloc,2023.2.2,60.00797386125317,
,,,,,,,,632.0648574220104,55,scenes-33.jpg,DO,1,vpnl,2023-11-09_20h30.26.016,longbabyloc,2023.2.2,60.00797386125317,
,,,,,,,,632.5646378000092,55,scenes-34.jpg,DO,1,vpnl,2023-11-09_20h30.26.016,longbabyloc,2023.2.2,60.00797386125317,
,,,,,,,,633.0646296830091,55,scenes-35.jpg,DO,1,vpnl,2023-11-09_20h30.26.016,longbabyloc,2023.2.2,60.00797386125317,
,,,,,,,,633.5647081260104,55,scenes-36.jpg,DO,1,vpnl,2023-11-09_20h30.26.016,longbabyloc,2023.2.2,60.00797386125317,
,,,,,,,,634.0646956620039,55,scenes-37.jpg,DO,1,vpnl,2023-11-09_20h30.26.016,longbabyloc,2023.2.2,60.00797386125317,
,,,,,,,,634.5647971440048,55,scenes-38.jpg,DO,1,vpnl,2023-11-09_20h30.26.016,longbabyloc,2023.2.2,60.00797386125317,
,,,,,,,,635.0646503900061,55,scenes-39.jpg,DO,1,vpnl,2023-11-09_20h30.26.016,longbabyloc,2023.2.2,60.00797386125317,
,,,,,,,,635.5646858539985,55,scenes-40.jpg,DO,1,vpnl,2023-11-09_20h30.26.016,longbabyloc,2023.2.2,60.00797386125317,
,,,,,,,,636.0646142940095,56,hands-33.jpg,DO,1,vpnl,2023-11-09_20h30.26.016,longbabyloc,2023.2.2,60.00797386125317,
,,,,,,,,636.5647026160004,56,hands-34.jpg,DO,1,vpnl,2023-11-09_20h30.26.016,longbabyloc,2023.2.2,60.00797386125317,
,,,,,,,,637.0646456329996,56,hands-35.jpg,DO,1,vpnl,2023-11-09_20h30.26.016,longbabyloc,2023.2.2,60.00797386125317,
,,,,,,,,637.5646044660098,56,hands-36.jpg,DO,1,vpnl,2023-11-09_20h30.26.016,longbabyloc,2023.2.2,60.00797386125317,
,,,,,,,,638.0646506190096,56,hands-37.jpg,DO,1,vpnl,2023-11-09_20h30.26.016,longbabyloc,2023.2.2,60.00797386125317,
,,,,,,,,638.5644853330014,56,hands-38.jpg,DO,1,vpnl,2023-11-09_20h30.26.016,longbabyloc,2023.2.2,60.00797386125317,
,,,,,,,,639.064446725999,56,hands-39.jpg,DO,1,vpnl,2023-11-09_20h30.26.016,longbabyloc,2023.2.2,60.00797386125317,
,,,,,,,,639.5649234230077,56,hands-40.jpg,DO,1,vpnl,2023-11-09_20h30.26.016,longbabyloc,2023.2.2,60.00797386125317,
,,,,,,,,640.0682055829966,57,faces-41.jpg,DO,1,vpnl,2023-11-09_20h30.26.016,longbabyloc,2023.2.2,60.00797386125317,
,,,,,,,,640.5645112390048,57,faces-42.jpg,DO,1,vpnl,2023-11-09_20h30.26.016,longbabyloc,2023.2.2,60.00797386125317,
,,,,,,,,641.0647793990065,57,faces-43.jpg,DO,1,vpnl,2023-11-09_20h30.26.016,longbabyloc,2023.2.2,60.00797386125317,
,,,,,,,,641.5644412999973,57,faces-44.jpg,DO,1,vpnl,2023-11-09_20h30.26.016,longbabyloc,2023.2.2,60.00797386125317,
,,,,,,,,642.0652163510094,57,faces-45.jpg,DO,1,vpnl,2023-11-09_20h30.26.016,longbabyloc,2023.2.2,60.00797386125317,
,,,,,,,,642.5644430050015,57,faces-46.jpg,DO,1,vpnl,2023-11-09_20h30.26.016,longbabyloc,2023.2.2,60.00797386125317,
,,,,,,,,643.0645415750041,57,faces-47.jpg,DO,1,vpnl,2023-11-09_20h30.26.016,longbabyloc,2023.2.2,60.00797386125317,
,,,,,,,,643.5645179550047,57,faces-48.jpg,DO,1,vpnl,2023-11-09_20h30.26.016,longbabyloc,2023.2.2,60.00797386125317,
,,,,,,,,644.0644681330014,58,scenes-41.jpg,DO,1,vpnl,2023-11-09_20h30.26.016,longbabyloc,2023.2.2,60.00797386125317,
,,,,,,,,644.5646474620007,58,scenes-42.jpg,DO,1,vpnl,2023-11-09_20h30.26.016,longbabyloc,2023.2.2,60.00797386125317,
,,,,,,,,645.0644230800099,58,scenes-43.jpg,DO,1,vpnl,2023-11-09_20h30.26.016,longbabyloc,2023.2.2,60.00797386125317,
,,,,,,,,645.5646109990048,58,scenes-44.jpg,DO,1,vpnl,2023-11-09_20h30.26.016,longbabyloc,2023.2.2,60.00797386125317,
,,,,,,,,646.0645182090084,58,scenes-45.jpg,DO,1,vpnl,2023-11-09_20h30.26.016,longbabyloc,2023.2.2,60.00797386125317,
,,,,,,,,646.5643120640016,58,scenes-46.jpg,DO,1,vpnl,2023-11-09_20h30.26.016,longbabyloc,2023.2.2,60.00797386125317,
,,,,,,,,647.0643572850095,58,scenes-47.jpg,DO,1,vpnl,2023-11-09_20h30.26.016,longbabyloc,2023.2.2,60.00797386125317,
,,,,,,,,647.56455855901,58,scenes-48.jpg,DO,1,vpnl,2023-11-09_20h30.26.016,longbabyloc,2023.2.2,60.00797386125317,
,,,,,,,,648.0644791450031,59,hands-41.jpg,DO,1,vpnl,2023-11-09_20h30.26.016,longbabyloc,2023.2.2,60.00797386125317,
,,,,,,,,648.5643971429963,59,hands-42.jpg,DO,1,vpnl,2023-11-09_20h30.26.016,longbabyloc,2023.2.2,60.00797386125317,
,,,,,,,,649.0643817520031,59,hands-43.jpg,DO,1,vpnl,2023-11-09_20h30.26.016,longbabyloc,2023.2.2,60.00797386125317,
,,,,,,,,649.5644197619986,59,hands-44.jpg,DO,1,vpnl,2023-11-09_20h30.26.016,longbabyloc,2023.2.2,60.00797386125317,
,,,,,,,,650.0644883299974,59,hands-45.jpg,DO,1,vpnl,2023-11-09_20h30.26.016,longbabyloc,2023.2.2,60.00797386125317,
,,,,,,,,650.5642813190061,59,hands-46.jpg,DO,1,vpnl,2023-11-09_20h30.26.016,longbabyloc,2023.2.2,60.00797386125317,
,,,,,,,,651.0643836840027,59,hands-47.jpg,DO,1,vpnl,2023-11-09_20h30.26.016,longbabyloc,2023.2.2,60.00797386125317,
,,,,,,,,651.5644241539994,59,hands-48.jpg,DO,1,vpnl,2023-11-09_20h30.26.016,longbabyloc,2023.2.2,60.00797386125317,
,,,,,,,,652.065095457001,60,blank-49.jpg,DO,1,vpnl,2023-11-09_20h30.26.016,longbabyloc,2023.2.2,60.00797386125317,
,,,,,,,,652.5644206770085,60,blank-50.jpg,DO,1,vpnl,2023-11-09_20h30.26.016,longbabyloc,2023.2.2,60.00797386125317,
,,,,,,,,653.0643729370058,60,blank-51.jpg,DO,1,vpnl,2023-11-09_20h30.26.016,longbabyloc,2023.2.2,60.00797386125317,
,,,,,,,,653.5642625659966,60,blank-52.jpg,DO,1,vpnl,2023-11-09_20h30.26.016,longbabyloc,2023.2.2,60.00797386125317,
,,,,,,,,654.0644284070004,60,blank-53.jpg,DO,1,vpnl,2023-11-09_20h30.26.016,longbabyloc,2023.2.2,60.00797386125317,
,,,,,,,,654.5642887340073,60,blank-54.jpg,DO,1,vpnl,2023-11-09_20h30.26.016,longbabyloc,2023.2.2,60.00797386125317,
,,,,,,,,655.064417059999,60,blank-55.jpg,DO,1,vpnl,2023-11-09_20h30.26.016,longbabyloc,2023.2.2,60.00797386125317,
,,,,,,,,655.5643557940057,60,blank-56.jpg,DO,1,vpnl,2023-11-09_20h30.26.016,longbabyloc,2023.2.2,60.00797386125317,
,,,,,,,,656.0645445730042,61,cars-41.jpg,DO,1,vpnl,2023-11-09_20h30.26.016,longbabyloc,2023.2.2,60.00797386125317,
,,,,,,,,656.5642012519966,61,cars-42.jpg,DO,1,vpnl,2023-11-09_20h30.26.016,longbabyloc,2023.2.2,60.00797386125317,
,,,,,,,,657.0641936910106,61,cars-43.jpg,DO,1,vpnl,2023-11-09_20h30.26.016,longbabyloc,2023.2.2,60.00797386125317,
,,,,,,,,657.5642323290085,61,cars-44.jpg,DO,1,vpnl,2023-11-09_20h30.26.016,longbabyloc,2023.2.2,60.00797386125317,
,,,,,,,,658.0643852630019,61,cars-45.jpg,DO,1,vpnl,2023-11-09_20h30.26.016,longbabyloc,2023.2.2,60.00797386125317,
,,,,,,,,658.5642812840088,61,cars-46.jpg,DO,1,vpnl,2023-11-09_20h30.26.016,longbabyloc,2023.2.2,60.00797386125317,
,,,,,,,,659.0641520170029,61,cars-47.jpg,DO,1,vpnl,2023-11-09_20h30.26.016,longbabyloc,2023.2.2,60.00797386125317,
,,,,,,,,659.5642068620073,61,cars-48.jpg,DO,1,vpnl,2023-11-09_20h30.26.016,longbabyloc,2023.2.2,60.00797386125317,
,,,,,,,,660.0643356189976,62,blank-57.jpg,DO,1,vpnl,2023-11-09_20h30.26.016,longbabyloc,2023.2.2,60.00797386125317,
,,,,,,,,660.5644089690031,62,blank-58.jpg,DO,1,vpnl,2023-11-09_20h30.26.016,longbabyloc,2023.2.2,60.00797386125317,
,,,,,,,,661.0641441120097,62,blank-59.jpg,DO,1,vpnl,2023-11-09_20h30.26.016,longbabyloc,2023.2.2,60.00797386125317,
,,,,,,,,661.5640854670055,62,blank-60.jpg,DO,1,vpnl,2023-11-09_20h30.26.016,longbabyloc,2023.2.2,60.00797386125317,
,,,,,,,,662.0642185530014,62,blank-61.jpg,DO,1,vpnl,2023-11-09_20h30.26.016,longbabyloc,2023.2.2,60.00797386125317,
,,,,,,,,662.5640687389969,62,blank-62.jpg,DO,1,vpnl,2023-11-09_20h30.26.016,longbabyloc,2023.2.2,60.00797386125317,
,,,,,,,,663.0643999210006,62,blank-63.jpg,DO,1,vpnl,2023-11-09_20h30.26.016,longbabyloc,2023.2.2,60.00797386125317,
,,,,,,,,663.5643356960063,62,blank-64.jpg,DO,1,vpnl,2023-11-09_20h30.26.016,longbabyloc,2023.2.2,60.00797386125317,
