thisRow.t,notes,waiting_for_trigger_text.started,trigger.started,trigger.keys,trigger.rt,countdown.started,trial.stopped,stimuli.started,condition,stim_name,participant,run,user,date,expName,psychopyVersion,frameRate,
,,45.15149082199787,45.15149082199787,t,29.630265906991553,,,,,,DO,1,vpnl,2023-11-09_20h30.26.016,longbabyloc,2023.2.2,60.00797386125317,
,,,,,,74.81623708100233,35.6785100880079,80.83011703600641,1,blank-1.jpg,DO,1,vpnl,2023-11-09_20h30.26.016,longbabyloc,2023.2.2,60.00797386125317,
,,,,,,,,81.32964594500663,1,blank-2.jpg,DO,1,vpnl,2023-11-09_20h30.26.016,longbabyloc,2023.2.2,60.00797386125317,
,,,,,,,,81.82963765400928,1,blank-3.jpg,DO,1,vpnl,2023-11-09_20h30.26.016,longbabyloc,2023.2.2,60.00797386125317,
,,,,,,,,82.33006492900313,1,blank-4.jpg,DO,1,vpnl,2023-11-09_20h30.26.016,longbabyloc,2023.2.2,60.00797386125317,
,,,,,,,,82.8296133469994,1,blank-5.jpg,DO,1,vpnl,2023-11-09_20h30.26.016,longbabyloc,2023.2.2,60.00797386125317,
,,,,,,,,83.32923165599641,1,blank-6.jpg,DO,1,vpnl,2023-11-09_20h30.26.016,longbabyloc,2023.2.2,60.00797386125317,
,,,,,,,,83.82981455800473,1,blank-7.jpg,DO,1,vpnl,2023-11-09_20h30.26.016,longbabyloc,2023.2.2,60.00797386125317,
,,,,,,,,84.33027632700396,1,blank-8.jpg,DO,1,vpnl,2023-11-09_20h30.26.016,longbabyloc,2023.2.2,60.00797386125317,
,,,,,,,,84.83000740200805,2,blank-9.jpg,DO,1,vpnl,2023-11-09_20h30.26.016,longbabyloc,2023.2.2,60.00797386125317,
,,,,,,,,85.32973155799846,2,blank-10.jpg,DO,1,vpnl,2023-11-09_20h30.26.016,longbabyloc,2023.2.2,60.00797386125317,
,,,,,,,,85.82906727300724,2,blank-11.jpg,DO,1,vpnl,2023-11-09_20h30.26.016,longbabyloc,2023.2.2,60.00797386125317,
,,,,,,,,86.329197027997,2,blank-12.jpg,DO,1,vpnl,2023-11-09_20h30.26.016,longbabyloc,2023.2.2,60.00797386125317,
,,,,,,,,86.82934034900973,2,blank-13.jpg,DO,1,vpnl,2023-11-09_20h30.26.016,longbabyloc,2023.2.2,60.00797386125317,
,,,,,,,,87.32898029500211,2,blank-14.jpg,DO,1,vpnl,2023-11-09_20h30.26.016,longbabyloc,2023.2.2,60.00797386125317,
,,,,,,,,87.82928618000005,2,blank-15.jpg,DO,1,vpnl,2023-11-09_20h30.26.016,longbabyloc,2023.2.2,60.00797386125317,
,,,,,,,,88.3297688330058,2,blank-16.jpg,DO,1,vpnl,2023-11-09_20h30.26.016,longbabyloc,2023.2.2,60.00797386125317,
,,,,,,,,88.8291178530053,3,hands-1.jpg,DO,1,vpnl,2023-11-09_20h30.26.016,longbabyloc,2023.2.2,60.00797386125317,
,,,,,,,,89.32903106600861,3,hands-2.jpg,DO,1,vpnl,2023-11-09_20h30.26.016,longbabyloc,2023.2.2,60.00797386125317,
,,,,,,,,89.82906298100716,3,hands-3.jpg,DO,1,vpnl,2023-11-09_20h30.26.016,longbabyloc,2023.2.2,60.00797386125317,
,,,,,,,,90.32838480500504,3,hands-4.jpg,DO,1,vpnl,2023-11-09_20h30.26.016,longbabyloc,2023.2.2,60.00797386125317,
,,,,,,,,90.82848505600123,3,hands-5.jpg,DO,1,vpnl,2023-11-09_20h30.26.016,longbabyloc,2023.2.2,60.00797386125317,
,,,,,,,,91.32524349700543,3,hands-6.jpg,DO,1,vpnl,2023-11-09_20h30.26.016,longbabyloc,2023.2.2,60.00797386125317,
,,,,,,,,91.82521306999843,3,hands-7.jpg,DO,1,vpnl,2023-11-09_20h30.26.016,longbabyloc,2023.2.2,60.00797386125317,
,,,,,,,,92.32473290601047,3,hands-8.jpg,DO,1,vpnl,2023-11-09_20h30.26.016,longbabyloc,2023.2.2,60.00797386125317,
,,,,,,,,92.82521747800638,4,scenes-1.jpg,DO,1,vpnl,2023-11-09_20h30.26.016,longbabyloc,2023.2.2,60.00797386125317,
,,,,,,,,93.32868560100906,4,scenes-2.jpg,DO,1,vpnl,2023-11-09_20h30.26.016,longbabyloc,2023.2.2,60.00797386125317,
,,,,,,,,93.8251026860089,4,scenes-3.jpg,DO,1,vpnl,2023-11-09_20h30.26.016,longbabyloc,2023.2.2,60.00797386125317,
,,,,,,,,94.32512104600028,4,scenes-4.jpg,DO,1,vpnl,2023-11-09_20h30.26.016,longbabyloc,2023.2.2,60.00797386125317,
,,,,,,,,94.8248978920019,4,scenes-5.jpg,DO,1,vpnl,2023-11-09_20h30.26.016,longbabyloc,2023.2.2,60.00797386125317,
,,,,,,,,95.32488807699701,4,scenes-6.jpg,DO,1,vpnl,2023-11-09_20h30.26.016,longbabyloc,2023.2.2,60.00797386125317,
,,,,,,,,95.82484300399665,4,scenes-7.jpg,DO,1,vpnl,2023-11-09_20h30.26.016,longbabyloc,2023.2.2,60.00797386125317,
,,,,,,,,96.32494757900713,4,scenes-8.jpg,DO,1,vpnl,2023-11-09_20h30.26.016,longbabyloc,2023.2.2,60.00797386125317,
,,,,,,,,96.82493735500611,5,cars-1.jpg,DO,1,vpnl,2023-11-09_20h30.26.016,longbabyloc,2023.2.2,60.00797386125317,
,,,,,,,,97.32494396599941,5,cars-2.jpg,DO,1,vpnl,2023-11-09_20h30.26.016,longbabyloc,2023.2.2,60.00797386125317,
,,,,,,,,97.82447947200853,5,cars-3.jpg,DO,1,vpnl,2023-11-09_20h30.26.016,longbabyloc,2023.2.2,60.00797386125317,
,,,,,,,,98.32486302300822,5,cars-4.jpg,DO,1,vpnl,2023-11-09_20h30.26.016,longbabyloc,2023.2.2,60.00797386125317,
,,,,,,,,98.82849212600559,5,cars-5.jpg,DO,1,vpnl,2023-11-09_20h30.26.016,longbabyloc,2023.2.2,60.00797386125317,
,,,,,,,,99.32495134600322,5,cars-6.jpg,DO,1,vpnl,2023-11-09_20h30.26.016,longbabyloc,2023.2.2,60.00797386125317,
,,,,,,,,99.82485642000393,5,cars-7.jpg,DO,1,vpnl,2023-11-09_20h30.26.016,longbabyloc,2023.2.2,60.00797386125317,
,,,,,,,,100.32477045000996,5,cars-8.jpg,DO,1,vpnl,2023-11-09_20h30.26.016,longbabyloc,2023.2.2,60.00797386125317,
,,,,,,,,100.82482667799923,6,faces-1.jpg,DO,1,vpnl,2023-11-09_20h30.26.016,longbabyloc,2023.2.2,60.00797386125317,
,,,,,,,,101.32489697900019,6,faces-2.jpg,DO,1,vpnl,2023-11-09_20h30.26.016,longbabyloc,2023.2.2,60.00797386125317,
,,,,,,,,101.82488929999818,6,faces-3.jpg,DO,1,vpnl,2023-11-09_20h30.26.016,longbabyloc,2023.2.2,60.00797386125317,
,,,,,,,,102.32489350599644,6,faces-4.jpg,DO,1,vpnl,2023-11-09_20h30.26.016,longbabyloc,2023.2.2,60.00797386125317,
,,,,,,,,102.82491184100218,6,faces-5.jpg,DO,1,vpnl,2023-11-09_20h30.26.016,longbabyloc,2023.2.2,60.00797386125317,
,,,,,,,,103.32453661400359,6,faces-6.jpg,DO,1,vpnl,2023-11-09_20h30.26.016,longbabyloc,2023.2.2,60.00797386125317,
,,,,,,,,103.8248249120079,6,faces-7.jpg,DO,1,vpnl,2023-11-09_20h30.26.016,longbabyloc,2023.2.2,60.00797386125317,
,,,,,,,,104.32480490200396,6,faces-8.jpg,DO,1,vpnl,2023-11-09_20h30.26.016,longbabyloc,2023.2.2,60.00797386125317,
,,,,,,,,104.8247319880029,7,scenes-9.jpg,DO,1,vpnl,2023-11-09_20h30.26.016,longbabyloc,2023.2.2,60.00797386125317,
,,,,,,,,105.32466013400699,7,scenes-10.jpg,DO,1,vpnl,2023-11-09_20h30.26.016,longbabyloc,2023.2.2,60.00797386125317,
,,,,,,,,105.82472486300685,7,scenes-11.jpg,DO,1,vpnl,2023-11-09_20h30.26.016,longbabyloc,2023.2.2,60.00797386125317,
,,,,,,,,106.32491150300484,7,scenes-12.jpg,DO,1,vpnl,2023-11-09_20h30.26.016,longbabyloc,2023.2.2,60.00797386125317,
,,,,,,,,106.82480537200172,7,scenes-13.jpg,DO,1,vpnl,2023-11-09_20h30.26.016,longbabyloc,2023.2.2,60.00797386125317,
,,,,,,,,107.32488378499693,7,scenes-14.jpg,DO,1,vpnl,2023-11-09_20h30.26.016,longbabyloc,2023.2.2,60.00797386125317,
,,,,,,,,107.82434402500803,7,scenes-15.jpg,DO,1,vpnl,2023-11-09_20h30.26.016,longbabyloc,2023.2.2,60.00797386125317,
,,,,,,,,108.32472087700444,7,scenes-16.jpg,DO,1,vpnl,2023-11-09_20h30.26.016,longbabyloc,2023.2.2,60.00797386125317,
,,,,,,,,108.82830339900102,8,hands-9.jpg,DO,1,vpnl,2023-11-09_20h30.26.016,longbabyloc,2023.2.2,60.00797386125317,
,,,,,,,,109.32465596401016,8,hands-10.jpg,DO,1,vpnl,2023-11-09_20h30.26.016,longbabyloc,2023.2.2,60.00797386125317,
,,,,,,,,109.82468622400484,8,hands-11.jpg,DO,1,vpnl,2023-11-09_20h30.26.016,longbabyloc,2023.2.2,60.00797386125317,
,,,,,,,,110.32466932400712,8,hands-12.jpg,DO,1,vpnl,2023-11-09_20h30.26.016,longbabyloc,2023.2.2,60.00797386125317,
,,,,,,,,110.82472141800099,8,hands-13.jpg,DO,1,vpnl,2023-11-09_20h30.26.016,longbabyloc,2023.2.2,60.00797386125317,
,,,,,,,,111.32473935499729,8,hands-14.jpg,DO,1,vpnl,2023-11-09_20h30.26.016,longbabyloc,2023.2.2,60.00797386125317,
,,,,,,,,111.82469634800509,8,hands-15.jpg,DO,1,vpnl,2023-11-09_20h30.26.016,longbabyloc,2023.2.2,60.00797386125317,
,,,,,,,,112.32444322000083,8,hands-16.jpg,DO,1,vpnl,2023-11-09_20h30.26.016,longbabyloc,2023.2.2,60.00797386125317,
,,,,,,,,112.82469206899987,9,cars-9.jpg,DO,1,vpnl,2023-11-09_20h30.26.016,longbabyloc,2023.2.2,60.00797386125317,
,,,,,,,,113.32464244299626,9,cars-10.jpg,DO,1,vpnl,2023-11-09_20h30.26.016,longbabyloc,2023.2.2,60.00797386125317,
,,,,,,,,113.82462625899643,9,cars-11.jpg,DO,1,vpnl,2023-11-09_20h30.26.016,longbabyloc,2023.2.2,60.00797386125317,
,,,,,,,,114.3247099910077,9,cars-12.jpg,DO,1,vpnl,2023-11-09_20h30.26.016,longbabyloc,2023.2.2,60.00797386125317,
,,,,,,,,114.8246266010101,9,cars-13.jpg,DO,1,vpnl,2023-11-09_20h30.26.016,longbabyloc,2023.2.2,60.00797386125317,
,,,,,,,,115.32455562301038,9,cars-14.jpg,DO,1,vpnl,2023-11-09_20h30.26.016,longbabyloc,2023.2.2,60.00797386125317,
,,,,,,,,115.824717771,9,cars-15.jpg,DO,1,vpnl,2023-11-09_20h30.26.016,longbabyloc,2023.2.2,60.00797386125317,
,,,,,,,,116.32466282600944,9,cars-16.jpg,DO,1,vpnl,2023-11-09_20h30.26.016,longbabyloc,2023.2.2,60.00797386125317,
,,,,,,,,116.82453953400545,10,blank-17.jpg,DO,1,vpnl,2023-11-09_20h30.26.016,longbabyloc,2023.2.2,60.00797386125317,
,,,,,,,,117.32452777100843,10,blank-18.jpg,DO,1,vpnl,2023-11-09_20h30.26.016,longbabyloc,2023.2.2,60.00797386125317,
,,,,,,,,117.82451667300484,10,blank-19.jpg,DO,1,vpnl,2023-11-09_20h30.26.016,longbabyloc,2023.2.2,60.00797386125317,
,,,,,,,,118.32451469900843,10,blank-20.jpg,DO,1,vpnl,2023-11-09_20h30.26.016,longbabyloc,2023.2.2,60.00797386125317,
,,,,,,,,118.82463362399722,10,blank-21.jpg,DO,1,vpnl,2023-11-09_20h30.26.016,longbabyloc,2023.2.2,60.00797386125317,
,,,,,,,,119.32459092600038,10,blank-22.jpg,DO,1,vpnl,2023-11-09_20h30.26.016,longbabyloc,2023.2.2,60.00797386125317,
,,,,,,,,119.8245486030064,10,blank-23.jpg,DO,1,vpnl,2023-11-09_20h30.26.016,longbabyloc,2023.2.2,60.00797386125317,
,,,,,,,,120.32439865299966,10,blank-24.jpg,DO,1,vpnl,2023-11-09_20h30.26.016,longbabyloc,2023.2.2,60.00797386125317,
,,,,,,,,120.82446109000011,11,faces-9.jpg,DO,1,vpnl,2023-11-09_20h30.26.016,longbabyloc,2023.2.2,60.00797386125317,
,,,,,,,,121.32443832499848,11,faces-10.jpg,DO,1,vpnl,2023-11-09_20h30.26.016,longbabyloc,2023.2.2,60.00797386125317,
,,,,,,,,121.82442903000629,11,faces-11.jpg,DO,1,vpnl,2023-11-09_20h30.26.016,longbabyloc,2023.2.2,60.00797386125317,
,,,,,,,,122.32448536899756,11,faces-12.jpg,DO,1,vpnl,2023-11-09_20h30.26.016,longbabyloc,2023.2.2,60.00797386125317,
,,,,,,,,122.82449531099701,11,faces-13.jpg,DO,1,vpnl,2023-11-09_20h30.26.016,longbabyloc,2023.2.2,60.00797386125317,
,,,,,,,,123.32451530901017,11,faces-14.jpg,DO,1,vpnl,2023-11-09_20h30.26.016,longbabyloc,2023.2.2,60.00797386125317,
,,,,,,,,123.8243717430014,11,faces-15.jpg,DO,1,vpnl,2023-11-09_20h30.26.016,longbabyloc,2023.2.2,60.00797386125317,
,,,,,,,,124.32445958499738,11,faces-16.jpg,DO,1,vpnl,2023-11-09_20h30.26.016,longbabyloc,2023.2.2,60.00797386125317,
,,,,,,,,124.82441028200265,12,blank-25.jpg,DO,1,vpnl,2023-11-09_20h30.26.016,longbabyloc,2023.2.2,60.00797386125317,
,,,,,,,,125.32435622700723,12,blank-26.jpg,DO,1,vpnl,2023-11-09_20h30.26.016,longbabyloc,2023.2.2,60.00797386125317,
,,,,,,,,125.82441077800468,12,blank-27.jpg,DO,1,vpnl,2023-11-09_20h30.26.016,longbabyloc,2023.2.2,60.00797386125317,
,,,,,,,,126.32443146700098,12,blank-28.jpg,DO,1,vpnl,2023-11-09_20h30.26.016,longbabyloc,2023.2.2,60.00797386125317,
,,,,,,,,126.82448440699955,12,blank-29.jpg,DO,1,vpnl,2023-11-09_20h30.26.016,longbabyloc,2023.2.2,60.00797386125317,
,,,,,,,,127.32424930900743,12,blank-30.jpg,DO,1,vpnl,2023-11-09_20h30.26.016,longbabyloc,2023.2.2,60.00797386125317,
,,,,,,,,127.82437661100994,12,blank-31.jpg,DO,1,vpnl,2023-11-09_20h30.26.016,longbabyloc,2023.2.2,60.00797386125317,
,,,,,,,,128.32434365499648,12,blank-32.jpg,DO,1,vpnl,2023-11-09_20h30.26.016,longbabyloc,2023.2.2,60.00797386125317,
,,,,,,,,128.8243807030085,13,hands-17.jpg,DO,1,vpnl,2023-11-09_20h30.26.016,longbabyloc,2023.2.2,60.00797386125317,
,,,,,,,,129.32444711700373,13,hands-18.jpg,DO,1,vpnl,2023-11-09_20h30.26.016,longbabyloc,2023.2.2,60.00797386125317,
,,,,,,,,129.8243488080043,13,hands-19.jpg,DO,1,vpnl,2023-11-09_20h30.26.016,longbabyloc,2023.2.2,60.00797386125317,
,,,,,,,,130.3244594340067,13,hands-20.jpg,DO,1,vpnl,2023-11-09_20h30.26.016,longbabyloc,2023.2.2,60.00797386125317,
,,,,,,,,130.8242326680047,13,hands-21.jpg,DO,1,vpnl,2023-11-09_20h30.26.016,longbabyloc,2023.2.2,60.00797386125317,
,,,,,,,,131.32428010800504,13,hands-22.jpg,DO,1,vpnl,2023-11-09_20h30.26.016,longbabyloc,2023.2.2,60.00797386125317,
,,,,,,,,131.82426458300324,13,hands-23.jpg,DO,1,vpnl,2023-11-09_20h30.26.016,longbabyloc,2023.2.2,60.00797386125317,
,,,,,,,,132.3243334810104,13,hands-24.jpg,DO,1,vpnl,2023-11-09_20h30.26.016,longbabyloc,2023.2.2,60.00797386125317,
,,,,,,,,132.8243203650054,14,faces-17.jpg,DO,1,vpnl,2023-11-09_20h30.26.016,longbabyloc,2023.2.2,60.00797386125317,
,,,,,,,,133.3243391099968,14,faces-18.jpg,DO,1,vpnl,2023-11-09_20h30.26.016,longbabyloc,2023.2.2,60.00797386125317,
,,,,,,,,133.82427886700316,14,faces-19.jpg,DO,1,vpnl,2023-11-09_20h30.26.016,longbabyloc,2023.2.2,60.00797386125317,
,,,,,,,,134.32394102400576,14,faces-20.jpg,DO,1,vpnl,2023-11-09_20h30.26.016,longbabyloc,2023.2.2,60.00797386125317,
,,,,,,,,134.82418853099807,14,faces-21.jpg,DO,1,vpnl,2023-11-09_20h30.26.016,longbabyloc,2023.2.2,60.00797386125317,
,,,,,,,,135.3241609950055,14,faces-22.jpg,DO,1,vpnl,2023-11-09_20h30.26.016,longbabyloc,2023.2.2,60.00797386125317,
,,,,,,,,135.82387629299774,14,faces-23.jpg,DO,1,vpnl,2023-11-09_20h30.26.016,longbabyloc,2023.2.2,60.00797386125317,
,,,,,,,,136.32426370400935,14,faces-24.jpg,DO,1,vpnl,2023-11-09_20h30.26.016,longbabyloc,2023.2.2,60.00797386125317,
,,,,,,,,136.82408663899696,15,cars-17.jpg,DO,1,vpnl,2023-11-09_20h30.26.016,longbabyloc,2023.2.2,60.00797386125317,
,,,,,,,,137.32382280800084,15,cars-18.jpg,DO,1,vpnl,2023-11-09_20h30.26.016,longbabyloc,2023.2.2,60.00797386125317,
,,,,,,,,137.82395858199743,15,cars-19.jpg,DO,1,vpnl,2023-11-09_20h30.26.016,longbabyloc,2023.2.2,60.00797386125317,
,,,,,,,,138.32389462800347,15,cars-20.jpg,DO,1,vpnl,2023-11-09_20h30.26.016,longbabyloc,2023.2.2,60.00797386125317,
,,,,,,,,138.82430487000966,15,cars-21.jpg,DO,1,vpnl,2023-11-09_20h30.26.016,longbabyloc,2023.2.2,60.00797386125317,
,,,,,,,,139.32419415599725,15,cars-22.jpg,DO,1,vpnl,2023-11-09_20h30.26.016,longbabyloc,2023.2.2,60.00797386125317,
,,,,,,,,139.82411478699942,15,cars-23.jpg,DO,1,vpnl,2023-11-09_20h30.26.016,longbabyloc,2023.2.2,60.00797386125317,
,,,,,,,,140.32397063401004,15,cars-24.jpg,DO,1,vpnl,2023-11-09_20h30.26.016,longbabyloc,2023.2.2,60.00797386125317,
,,,,,,,,140.82407319699996,16,scenes-17.jpg,DO,1,vpnl,2023-11-09_20h30.26.016,longbabyloc,2023.2.2,60.00797386125317,
,,,,,,,,141.32400642499852,16,scenes-18.jpg,DO,1,vpnl,2023-11-09_20h30.26.016,longbabyloc,2023.2.2,60.00797386125317,
,,,,,,,,141.82376502901025,16,scenes-19.jpg,DO,1,vpnl,2023-11-09_20h30.26.016,longbabyloc,2023.2.2,60.00797386125317,
,,,,,,,,142.32372028600366,16,scenes-20.jpg,DO,1,vpnl,2023-11-09_20h30.26.016,longbabyloc,2023.2.2,60.00797386125317,
,,,,,,,,142.82390151500294,16,scenes-21.jpg,DO,1,vpnl,2023-11-09_20h30.26.016,longbabyloc,2023.2.2,60.00797386125317,
,,,,,,,,143.32399220801017,16,scenes-22.jpg,DO,1,vpnl,2023-11-09_20h30.26.016,longbabyloc,2023.2.2,60.00797386125317,
,,,,,,,,143.82371142000193,16,scenes-23.jpg,DO,1,vpnl,2023-11-09_20h30.26.016,longbabyloc,2023.2.2,60.00797386125317,
,,,,,,,,144.32378811801027,16,scenes-24.jpg,DO,1,vpnl,2023-11-09_20h30.26.016,longbabyloc,2023.2.2,60.00797386125317,
,,,,,,,,144.8240580529964,17,faces-25.jpg,DO,1,vpnl,2023-11-09_20h30.26.016,longbabyloc,2023.2.2,60.00797386125317,
,,,,,,,,145.32377597699815,17,faces-26.jpg,DO,1,vpnl,2023-11-09_20h30.26.016,longbabyloc,2023.2.2,60.00797386125317,
,,,,,,,,145.8240036470088,17,faces-27.jpg,DO,1,vpnl,2023-11-09_20h30.26.016,longbabyloc,2023.2.2,60.00797386125317,
,,,,,,,,146.32402264401026,17,faces-28.jpg,DO,1,vpnl,2023-11-09_20h30.26.016,longbabyloc,2023.2.2,60.00797386125317,
,,,,,,,,146.82413002400426,17,faces-29.jpg,DO,1,vpnl,2023-11-09_20h30.26.016,longbabyloc,2023.2.2,60.00797386125317,
,,,,,,,,147.32401102600852,17,faces-30.jpg,DO,1,vpnl,2023-11-09_20h30.26.016,longbabyloc,2023.2.2,60.00797386125317,
,,,,,,,,147.82397405699885,17,faces-31.jpg,DO,1,vpnl,2023-11-09_20h30.26.016,longbabyloc,2023.2.2,60.00797386125317,
,,,,,,,,148.32396565000818,17,faces-32.jpg,DO,1,vpnl,2023-11-09_20h30.26.016,longbabyloc,2023.2.2,60.00797386125317,
,,,,,,,,148.8275748800079,18,blank-33.jpg,DO,1,vpnl,2023-11-09_20h30.26.016,longbabyloc,2023.2.2,60.00797386125317,
,,,,,,,,149.32419493699854,18,blank-34.jpg,DO,1,vpnl,2023-11-09_20h30.26.016,longbabyloc,2023.2.2,60.00797386125317,
,,,,,,,,149.82388076699863,18,blank-35.jpg,DO,1,vpnl,2023-11-09_20h30.26.016,longbabyloc,2023.2.2,60.00797386125317,
,,,,,,,,150.32360243400035,18,blank-36.jpg,DO,1,vpnl,2023-11-09_20h30.26.016,longbabyloc,2023.2.2,60.00797386125317,
,,,,,,,,150.82391106100113,18,blank-37.jpg,DO,1,vpnl,2023-11-09_20h30.26.016,longbabyloc,2023.2.2,60.00797386125317,
,,,,,,,,151.32359335500223,18,blank-38.jpg,DO,1,vpnl,2023-11-09_20h30.26.016,longbabyloc,2023.2.2,60.00797386125317,
,,,,,,,,151.82352409300802,18,blank-39.jpg,DO,1,vpnl,2023-11-09_20h30.26.016,longbabyloc,2023.2.2,60.00797386125317,
,,,,,,,,152.32361194600526,18,blank-40.jpg,DO,1,vpnl,2023-11-09_20h30.26.016,longbabyloc,2023.2.2,60.00797386125317,
,,,,,,,,152.82399105100194,19,cars-25.jpg,DO,1,vpnl,2023-11-09_20h30.26.016,longbabyloc,2023.2.2,60.00797386125317,
,,,,,,,,153.32356985200022,19,cars-26.jpg,DO,1,vpnl,2023-11-09_20h30.26.016,longbabyloc,2023.2.2,60.00797386125317,
,,,,,,,,153.82354263700836,19,cars-27.jpg,DO,1,vpnl,2023-11-09_20h30.26.016,longbabyloc,2023.2.2,60.00797386125317,
,,,,,,,,154.323576322,19,cars-28.jpg,DO,1,vpnl,2023-11-09_20h30.26.016,longbabyloc,2023.2.2,60.00797386125317,
,,,,,,,,154.82380326499697,19,cars-29.jpg,DO,1,vpnl,2023-11-09_20h30.26.016,longbabyloc,2023.2.2,60.00797386125317,
,,,,,,,,155.32349258499744,19,cars-30.jpg,DO,1,vpnl,2023-11-09_20h30.26.016,longbabyloc,2023.2.2,60.00797386125317,
,,,,,,,,155.82347806400503,19,cars-31.jpg,DO,1,vpnl,2023-11-09_20h30.26.016,longbabyloc,2023.2.2,60.00797386125317,
,,,,,,,,156.32357352600957,19,cars-32.jpg,DO,1,vpnl,2023-11-09_20h30.26.016,longbabyloc,2023.2.2,60.00797386125317,
,,,,,,,,156.82389038799738,20,hands-25.jpg,DO,1,vpnl,2023-11-09_20h30.26.016,longbabyloc,2023.2.2,60.00797386125317,
,,,,,,,,157.3238136680011,20,hands-26.jpg,DO,1,vpnl,2023-11-09_20h30.26.016,longbabyloc,2023.2.2,60.00797386125317,
,,,,,,,,157.82381766100298,20,hands-27.jpg,DO,1,vpnl,2023-11-09_20h30.26.016,longbabyloc,2023.2.2,60.00797386125317,
,,,,,,,,158.3238524000044,20,hands-28.jpg,DO,1,vpnl,2023-11-09_20h30.26.016,longbabyloc,2023.2.2,60.00797386125317,
,,,,,,,,158.8274074660003,20,hands-29.jpg,DO,1,vpnl,2023-11-09_20h30.26.016,longbabyloc,2023.2.2,60.00797386125317,
,,,,,,,,159.323895309004,20,hands-30.jpg,DO,1,vpnl,2023-11-09_20h30.26.016,longbabyloc,2023.2.2,60.00797386125317,
,,,,,,,,159.823714062004,20,hands-31.jpg,DO,1,vpnl,2023-11-09_20h30.26.016,longbabyloc,2023.2.2,60.00797386125317,
,,,,,,,,160.32357403700007,20,hands-32.jpg,DO,1,vpnl,2023-11-09_20h30.26.016,longbabyloc,2023.2.2,60.00797386125317,
,,,,,,,,160.8236493410077,21,scenes-25.jpg,DO,1,vpnl,2023-11-09_20h30.26.016,longbabyloc,2023.2.2,60.00797386125317,
,,,,,,,,161.32366501100478,21,scenes-26.jpg,DO,1,vpnl,2023-11-09_20h30.26.016,longbabyloc,2023.2.2,60.00797386125317,
,,,,,,,,161.82340490500792,21,scenes-27.jpg,DO,1,vpnl,2023-11-09_20h30.26.016,longbabyloc,2023.2.2,60.00797386125317,
,,,,,,,,162.32380889399792,21,scenes-28.jpg,DO,1,vpnl,2023-11-09_20h30.26.016,longbabyloc,2023.2.2,60.00797386125317,
,,,,,,,,162.82356996599992,21,scenes-29.jpg,DO,1,vpnl,2023-11-09_20h30.26.016,longbabyloc,2023.2.2,60.00797386125317,
,,,,,,,,163.32372034800937,21,scenes-30.jpg,DO,1,vpnl,2023-11-09_20h30.26.016,longbabyloc,2023.2.2,60.00797386125317,
,,,,,,,,163.82366863700736,21,scenes-31.jpg,DO,1,vpnl,2023-11-09_20h30.26.016,longbabyloc,2023.2.2,60.00797386125317,
,,,,,,,,164.32345271800295,21,scenes-32.jpg,DO,1,vpnl,2023-11-09_20h30.26.016,longbabyloc,2023.2.2,60.00797386125317,
,,,,,,,,164.82363098300993,22,blank-41.jpg,DO,1,vpnl,2023-11-09_20h30.26.016,longbabyloc,2023.2.2,60.00797386125317,
,,,,,,,,165.32352199600427,22,blank-42.jpg,DO,1,vpnl,2023-11-09_20h30.26.016,longbabyloc,2023.2.2,60.00797386125317,
,,,,,,,,165.8235819249967,22,blank-43.jpg,DO,1,vpnl,2023-11-09_20h30.26.016,longbabyloc,2023.2.2,60.00797386125317,
,,,,,,,,166.323691676007,22,blank-44.jpg,DO,1,vpnl,2023-11-09_20h30.26.016,longbabyloc,2023.2.2,60.00797386125317,
,,,,,,,,166.82675732400094,22,blank-45.jpg,DO,1,vpnl,2023-11-09_20h30.26.016,longbabyloc,2023.2.2,60.00797386125317,
,,,,,,,,167.3233435239963,22,blank-46.jpg,DO,1,vpnl,2023-11-09_20h30.26.016,longbabyloc,2023.2.2,60.00797386125317,
,,,,,,,,167.8232539090095,22,blank-47.jpg,DO,1,vpnl,2023-11-09_20h30.26.016,longbabyloc,2023.2.2,60.00797386125317,
,,,,,,,,168.3232363700081,22,blank-48.jpg,DO,1,vpnl,2023-11-09_20h30.26.016,longbabyloc,2023.2.2,60.00797386125317,
,,,,,,,,168.8236026300001,23,scenes-33.jpg,DO,1,vpnl,2023-11-09_20h30.26.016,longbabyloc,2023.2.2,60.00797386125317,
,,,,,,,,169.32349438899837,23,scenes-34.jpg,DO,1,vpnl,2023-11-09_20h30.26.016,longbabyloc,2023.2.2,60.00797386125317,
,,,,,,,,169.82311146199936,23,scenes-35.jpg,DO,1,vpnl,2023-11-09_20h30.26.016,longbabyloc,2023.2.2,60.00797386125317,
,,,,,,,,170.32311509399733,23,scenes-36.jpg,DO,1,vpnl,2023-11-09_20h30.26.016,longbabyloc,2023.2.2,60.00797386125317,
,,,,,,,,170.8235864879971,23,scenes-37.jpg,DO,1,vpnl,2023-11-09_20h30.26.016,longbabyloc,2023.2.2,60.00797386125317,
,,,,,,,,171.32310045800114,23,scenes-38.jpg,DO,1,vpnl,2023-11-09_20h30.26.016,longbabyloc,2023.2.2,60.00797386125317,
,,,,,,,,171.82326406599896,23,scenes-39.jpg,DO,1,vpnl,2023-11-09_20h30.26.016,longbabyloc,2023.2.2,60.00797386125317,
,,,,,,,,172.32313428800262,23,scenes-40.jpg,DO,1,vpnl,2023-11-09_20h30.26.016,longbabyloc,2023.2.2,60.00797386125317,
,,,,,,,,172.8234710609977,24,hands-33.jpg,DO,1,vpnl,2023-11-09_20h30.26.016,longbabyloc,2023.2.2,60.00797386125317,
,,,,,,,,173.32352202400216,24,hands-34.jpg,DO,1,vpnl,2023-11-09_20h30.26.016,longbabyloc,2023.2.2,60.00797386125317,
,,,,,,,,173.82350402401062,24,hands-35.jpg,DO,1,vpnl,2023-11-09_20h30.26.016,longbabyloc,2023.2.2,60.00797386125317,
,,,,,,,,174.32318088100874,24,hands-36.jpg,DO,1,vpnl,2023-11-09_20h30.26.016,longbabyloc,2023.2.2,60.00797386125317,
,,,,,,,,174.82346697500907,24,hands-37.jpg,DO,1,vpnl,2023-11-09_20h30.26.016,longbabyloc,2023.2.2,60.00797386125317,
,,,,,,,,175.3231830069999,24,hands-38.jpg,DO,1,vpnl,2023-11-09_20h30.26.016,longbabyloc,2023.2.2,60.00797386125317,
,,,,,,,,175.82362853799714,24,hands-39.jpg,DO,1,vpnl,2023-11-09_20h30.26.016,longbabyloc,2023.2.2,60.00797386125317,
,,,,,,,,176.32349321999936,24,hands-40.jpg,DO,1,vpnl,2023-11-09_20h30.26.016,longbabyloc,2023.2.2,60.00797386125317,
,,,,,,,,176.8234508059977,25,cars-33.jpg,DO,1,vpnl,2023-11-09_20h30.26.016,longbabyloc,2023.2.2,60.00797386125317,
,,,,,,,,177.32350135401066,25,cars-34.jpg,DO,1,vpnl,2023-11-09_20h30.26.016,longbabyloc,2023.2.2,60.00797386125317,
,,,,,,,,177.8234718980093,25,cars-35.jpg,DO,1,vpnl,2023-11-09_20h30.26.016,longbabyloc,2023.2.2,60.00797386125317,
,,,,,,,,178.32336942599795,25,cars-36.jpg,DO,1,vpnl,2023-11-09_20h30.26.016,longbabyloc,2023.2.2,60.00797386125317,
,,,,,,,,178.8234744700021,25,cars-37.jpg,DO,1,vpnl,2023-11-09_20h30.26.016,longbabyloc,2023.2.2,60.00797386125317,
,,,,,,,,179.32349478000833,25,cars-38.jpg,DO,1,vpnl,2023-11-09_20h30.26.016,longbabyloc,2023.2.2,60.00797386125317,
,,,,,,,,179.82316237600753,25,cars-39.jpg,DO,1,vpnl,2023-11-09_20h30.26.016,longbabyloc,2023.2.2,60.00797386125317,
,,,,,,,,180.32307940200553,25,cars-40.jpg,DO,1,vpnl,2023-11-09_20h30.26.016,longbabyloc,2023.2.2,60.00797386125317,
,,,,,,,,180.82314328900247,26,faces-33.jpg,DO,1,vpnl,2023-11-09_20h30.26.016,longbabyloc,2023.2.2,60.00797386125317,
,,,,,,,,181.32296385100926,26,faces-34.jpg,DO,1,vpnl,2023-11-09_20h30.26.016,longbabyloc,2023.2.2,60.00797386125317,
,,,,,,,,181.8229762270057,26,faces-35.jpg,DO,1,vpnl,2023-11-09_20h30.26.016,longbabyloc,2023.2.2,60.00797386125317,
,,,,,,,,182.32312997200643,26,faces-36.jpg,DO,1,vpnl,2023-11-09_20h30.26.016,longbabyloc,2023.2.2,60.00797386125317,
,,,,,,,,182.82331967900973,26,faces-37.jpg,DO,1,vpnl,2023-11-09_20h30.26.016,longbabyloc,2023.2.2,60.00797386125317,
,,,,,,,,183.3229644450039,26,faces-38.jpg,DO,1,vpnl,2023-11-09_20h30.26.016,longbabyloc,2023.2.2,60.00797386125317,
,,,,,,,,183.8230436570011,26,faces-39.jpg,DO,1,vpnl,2023-11-09_20h30.26.016,longbabyloc,2023.2.2,60.00797386125317,
,,,,,,,,184.3230384960043,26,faces-40.jpg,DO,1,vpnl,2023-11-09_20h30.26.016,longbabyloc,2023.2.2,60.00797386125317,
,,,,,,,,184.82326590101002,27,blank-49.jpg,DO,1,vpnl,2023-11-09_20h30.26.016,longbabyloc,2023.2.2,60.00797386125317,
,,,,,,,,185.32291241100756,27,blank-50.jpg,DO,1,vpnl,2023-11-09_20h30.26.016,longbabyloc,2023.2.2,60.00797386125317,
,,,,,,,,185.82290983801067,27,blank-51.jpg,DO,1,vpnl,2023-11-09_20h30.26.016,longbabyloc,2023.2.2,60.00797386125317,
,,,,,,,,186.32300086099713,27,blank-52.jpg,DO,1,vpnl,2023-11-09_20h30.26.016,longbabyloc,2023.2.2,60.00797386125317,
,,,,,,,,186.82327541000268,27,blank-53.jpg,DO,1,vpnl,2023-11-09_20h30.26.016,longbabyloc,2023.2.2,60.00797386125317,
,,,,,,,,187.32321676700667,27,blank-54.jpg,DO,1,vpnl,2023-11-09_20h30.26.016,longbabyloc,2023.2.2,60.00797386125317,
,,,,,,,,187.82298606699624,27,blank-55.jpg,DO,1,vpnl,2023-11-09_20h30.26.016,longbabyloc,2023.2.2,60.00797386125317,
,,,,,,,,188.32323078101035,27,blank-56.jpg,DO,1,vpnl,2023-11-09_20h30.26.016,longbabyloc,2023.2.2,60.00797386125317,
,,,,,,,,188.82313445399632,28,cars-41.jpg,DO,1,vpnl,2023-11-09_20h30.26.016,longbabyloc,2023.2.2,60.00797386125317,
,,,,,,,,189.32293219299754,28,cars-42.jpg,DO,1,vpnl,2023-11-09_20h30.26.016,longbabyloc,2023.2.2,60.00797386125317,
,,,,,,,,189.82294159100275,28,cars-43.jpg,DO,1,vpnl,2023-11-09_20h30.26.016,longbabyloc,2023.2.2,60.00797386125317,
,,,,,,,,190.32282855499943,28,cars-44.jpg,DO,1,vpnl,2023-11-09_20h30.26.016,longbabyloc,2023.2.2,60.00797386125317,
,,,,,,,,190.8228391599987,28,cars-45.jpg,DO,1,vpnl,2023-11-09_20h30.26.016,longbabyloc,2023.2.2,60.00797386125317,
,,,,,,,,191.3231253450067,28,cars-46.jpg,DO,1,vpnl,2023-11-09_20h30.26.016,longbabyloc,2023.2.2,60.00797386125317,
,,,,,,,,191.82277963899833,28,cars-47.jpg,DO,1,vpnl,2023-11-09_20h30.26.016,longbabyloc,2023.2.2,60.00797386125317,
,,,,,,,,192.32276204699883,28,cars-48.jpg,DO,1,vpnl,2023-11-09_20h30.26.016,longbabyloc,2023.2.2,60.00797386125317,
,,,,,,,,192.82271080800274,29,faces-41.jpg,DO,1,vpnl,2023-11-09_20h30.26.016,longbabyloc,2023.2.2,60.00797386125317,
,,,,,,,,193.32318136800313,29,faces-42.jpg,DO,1,vpnl,2023-11-09_20h30.26.016,longbabyloc,2023.2.2,60.00797386125317,
,,,,,,,,193.8228519240074,29,faces-43.jpg,DO,1,vpnl,2023-11-09_20h30.26.016,longbabyloc,2023.2.2,60.00797386125317,
,,,,,,,,194.32298081299814,29,faces-44.jpg,DO,1,vpnl,2023-11-09_20h30.26.016,longbabyloc,2023.2.2,60.00797386125317,
,,,,,,,,194.82275041400862,29,faces-45.jpg,DO,1,vpnl,2023-11-09_20h30.26.016,longbabyloc,2023.2.2,60.00797386125317,
,,,,,,,,195.32275949000905,29,faces-46.jpg,DO,1,vpnl,2023-11-09_20h30.26.016,longbabyloc,2023.2.2,60.00797386125317,
,,,,,,,,195.82310302399856,29,faces-47.jpg,DO,1,vpnl,2023-11-09_20h30.26.016,longbabyloc,2023.2.2,60.00797386125317,
,,,,,,,,196.32269628799986,29,faces-48.jpg,DO,1,vpnl,2023-11-09_20h30.26.016,longbabyloc,2023.2.2,60.00797386125317,
,,,,,,,,196.82276561899926,30,hands-41.jpg,DO,1,vpnl,2023-11-09_20h30.26.016,longbabyloc,2023.2.2,60.00797386125317,
,,,,,,,,197.32274264399894,30,hands-42.jpg,DO,1,vpnl,2023-11-09_20h30.26.016,longbabyloc,2023.2.2,60.00797386125317,
,,,,,,,,197.82284648400673,30,hands-43.jpg,DO,1,vpnl,2023-11-09_20h30.26.016,longbabyloc,2023.2.2,60.00797386125317,
,,,,,,,,198.32262882099894,30,hands-44.jpg,DO,1,vpnl,2023-11-09_20h30.26.016,longbabyloc,2023.2.2,60.00797386125317,
,,,,,,,,198.8226982979977,30,hands-45.jpg,DO,1,vpnl,2023-11-09_20h30.26.016,longbabyloc,2023.2.2,60.00797386125317,
,,,,,,,,199.32272106599703,30,hands-46.jpg,DO,1,vpnl,2023-11-09_20h30.26.016,longbabyloc,2023.2.2,60.00797386125317,
,,,,,,,,199.8227179539972,30,hands-47.jpg,DO,1,vpnl,2023-11-09_20h30.26.016,longbabyloc,2023.2.2,60.00797386125317,
,,,,,,,,200.3229030030052,30,hands-48.jpg,DO,1,vpnl,2023-11-09_20h30.26.016,longbabyloc,2023.2.2,60.00797386125317,
,,,,,,,,200.82270169600088,31,scenes-41.jpg,DO,1,vpnl,2023-11-09_20h30.26.016,longbabyloc,2023.2.2,60.00797386125317,
,,,,,,,,201.322601716005,31,scenes-42.jpg,DO,1,vpnl,2023-11-09_20h30.26.016,longbabyloc,2023.2.2,60.00797386125317,
,,,,,,,,201.8225428970036,31,scenes-43.jpg,DO,1,vpnl,2023-11-09_20h30.26.016,longbabyloc,2023.2.2,60.00797386125317,
,,,,,,,,202.32263756499742,31,scenes-44.jpg,DO,1,vpnl,2023-11-09_20h30.26.016,longbabyloc,2023.2.2,60.00797386125317,
,,,,,,,,202.82263340700592,31,scenes-45.jpg,DO,1,vpnl,2023-11-09_20h30.26.016,longbabyloc,2023.2.2,60.00797386125317,
,,,,,,,,203.32318992400542,31,scenes-46.jpg,DO,1,vpnl,2023-11-09_20h30.26.016,longbabyloc,2023.2.2,60.00797386125317,
,,,,,,,,203.82264500200108,31,scenes-47.jpg,DO,1,vpnl,2023-11-09_20h30.26.016,longbabyloc,2023.2.2,60.00797386125317,
,,,,,,,,204.3226235720067,31,scenes-48.jpg,DO,1,vpnl,2023-11-09_20h30.26.016,longbabyloc,2023.2.2,60.00797386125317,
,,,,,,,,204.82317176100332,32,cars-49.jpg,DO,1,vpnl,2023-11-09_20h30.26.016,longbabyloc,2023.2.2,60.00797386125317,
,,,,,,,,205.32245822400728,32,cars-50.jpg,DO,1,vpnl,2023-11-09_20h30.26.016,longbabyloc,2023.2.2,60.00797386125317,
,,,,,,,,205.82246105400554,32,cars-51.jpg,DO,1,vpnl,2023-11-09_20h30.26.016,longbabyloc,2023.2.2,60.00797386125317,
,,,,,,,,206.3229509619996,32,cars-52.jpg,DO,1,vpnl,2023-11-09_20h30.26.016,longbabyloc,2023.2.2,60.00797386125317,
,,,,,,,,206.8226011000079,32,cars-53.jpg,DO,1,vpnl,2023-11-09_20h30.26.016,longbabyloc,2023.2.2,60.00797386125317,
,,,,,,,,207.3225137940026,32,cars-54.jpg,DO,1,vpnl,2023-11-09_20h30.26.016,longbabyloc,2023.2.2,60.00797386125317,
,,,,,,,,207.8225811250013,32,cars-55.jpg,DO,1,vpnl,2023-11-09_20h30.26.016,longbabyloc,2023.2.2,60.00797386125317,
,,,,,,,,208.32284862399683,32,cars-56.jpg,DO,1,vpnl,2023-11-09_20h30.26.016,longbabyloc,2023.2.2,60.00797386125317,
,,,,,,,,208.82292017299915,33,blank-57.jpg,DO,1,vpnl,2023-11-09_20h30.26.016,longbabyloc,2023.2.2,60.00797386125317,
,,,,,,,,209.32249936299922,33,blank-58.jpg,DO,1,vpnl,2023-11-09_20h30.26.016,longbabyloc,2023.2.2,60.00797386125317,
,,,,,,,,209.82292754900118,33,blank-59.jpg,DO,1,vpnl,2023-11-09_20h30.26.016,longbabyloc,2023.2.2,60.00797386125317,
,,,,,,,,210.32287844900566,33,blank-60.jpg,DO,1,vpnl,2023-11-09_20h30.26.016,longbabyloc,2023.2.2,60.00797386125317,
,,,,,,,,210.82259976200294,33,blank-61.jpg,DO,1,vpnl,2023-11-09_20h30.26.016,longbabyloc,2023.2.2,60.00797386125317,
,,,,,,,,211.32284344700747,33,blank-62.jpg,DO,1,vpnl,2023-11-09_20h30.26.016,longbabyloc,2023.2.2,60.00797386125317,
,,,,,,,,211.82275704100903,33,blank-63.jpg,DO,1,vpnl,2023-11-09_20h30.26.016,longbabyloc,2023.2.2,60.00797386125317,
,,,,,,,,212.3225868340087,33,blank-64.jpg,DO,1,vpnl,2023-11-09_20h30.26.016,longbabyloc,2023.2.2,60.00797386125317,
,,,,,,,,212.82278701900213,34,scenes-49.jpg,DO,1,vpnl,2023-11-09_20h30.26.016,longbabyloc,2023.2.2,60.00797386125317,
,,,,,,,,213.32287671799713,34,scenes-50.jpg,DO,1,vpnl,2023-11-09_20h30.26.016,longbabyloc,2023.2.2,60.00797386125317,
,,,,,,,,213.8292241270101,34,scenes-51.jpg,DO,1,vpnl,2023-11-09_20h30.26.016,longbabyloc,2023.2.2,60.00797386125317,
,,,,,,,,214.3227428060054,34,scenes-52.jpg,DO,1,vpnl,2023-11-09_20h30.26.016,longbabyloc,2023.2.2,60.00797386125317,
,,,,,,,,214.82274133000465,34,scenes-53.jpg,DO,1,vpnl,2023-11-09_20h30.26.016,longbabyloc,2023.2.2,60.00797386125317,
,,,,,,,,215.32255825100583,34,scenes-54.jpg,DO,1,vpnl,2023-11-09_20h30.26.016,longbabyloc,2023.2.2,60.00797386125317,
,,,,,,,,215.82261185901007,34,scenes-55.jpg,DO,1,vpnl,2023-11-09_20h30.26.016,longbabyloc,2023.2.2,60.00797386125317,
,,,,,,,,216.32249074200809,34,scenes-56.jpg,DO,1,vpnl,2023-11-09_20h30.26.016,longbabyloc,2023.2.2,60.00797386125317,
,,,,,,,,216.82271661200502,35,faces-49.jpg,DO,1,vpnl,2023-11-09_20h30.26.016,longbabyloc,2023.2.2,60.00797386125317,
,,,,,,,,217.3228589890059,35,faces-50.jpg,DO,1,vpnl,2023-11-09_20h30.26.016,longbabyloc,2023.2.2,60.00797386125317,
,,,,,,,,217.82241766000516,35,faces-51.jpg,DO,1,vpnl,2023-11-09_20h30.26.016,longbabyloc,2023.2.2,60.00797386125317,
,,,,,,,,218.32271174000925,35,faces-52.jpg,DO,1,vpnl,2023-11-09_20h30.26.016,longbabyloc,2023.2.2,60.00797386125317,
,,,,,,,,218.82263468300516,35,faces-53.jpg,DO,1,vpnl,2023-11-09_20h30.26.016,longbabyloc,2023.2.2,60.00797386125317,
,,,,,,,,219.32255731800979,35,faces-54.jpg,DO,1,vpnl,2023-11-09_20h30.26.016,longbabyloc,2023.2.2,60.00797386125317,
,,,,,,,,219.8226804080041,35,faces-55.jpg,DO,1,vpnl,2023-11-09_20h30.26.016,longbabyloc,2023.2.2,60.00797386125317,
,,,,,,,,220.3224881900096,35,faces-56.jpg,DO,1,vpnl,2023-11-09_20h30.26.016,longbabyloc,2023.2.2,60.00797386125317,
,,,,,,,,220.82240458800516,36,hands-49.jpg,DO,1,vpnl,2023-11-09_20h30.26.016,longbabyloc,2023.2.2,60.00797386125317,
,,,,,,,,221.32272291400295,36,hands-50.jpg,DO,1,vpnl,2023-11-09_20h30.26.016,longbabyloc,2023.2.2,60.00797386125317,
,,,,,,,,221.82280118000926,36,hands-51.jpg,DO,1,vpnl,2023-11-09_20h30.26.016,longbabyloc,2023.2.2,60.00797386125317,
,,,,,,,,222.32240904599894,36,hands-52.jpg,DO,1,vpnl,2023-11-09_20h30.26.016,longbabyloc,2023.2.2,60.00797386125317,
,,,,,,,,222.8225394159963,36,hands-53.jpg,DO,1,vpnl,2023-11-09_20h30.26.016,longbabyloc,2023.2.2,60.00797386125317,
,,,,,,,,223.32259789500677,36,hands-54.jpg,DO,1,vpnl,2023-11-09_20h30.26.016,longbabyloc,2023.2.2,60.00797386125317,
,,,,,,,,223.82241852700827,36,hands-55.jpg,DO,1,vpnl,2023-11-09_20h30.26.016,longbabyloc,2023.2.2,60.00797386125317,
,,,,,,,,224.3225902330014,36,hands-56.jpg,DO,1,vpnl,2023-11-09_20h30.26.016,longbabyloc,2023.2.2,60.00797386125317,
,,,,,,,,224.82271701600985,37,cars-57.jpg,DO,1,vpnl,2023-11-09_20h30.26.016,longbabyloc,2023.2.2,60.00797386125317,
,,,,,,,,225.32217119800043,37,cars-58.jpg,DO,1,vpnl,2023-11-09_20h30.26.016,longbabyloc,2023.2.2,60.00797386125317,
,,,,,,,,225.8224269850034,37,cars-59.jpg,DO,1,vpnl,2023-11-09_20h30.26.016,longbabyloc,2023.2.2,60.00797386125317,
,,,,,,,,226.32248568400973,37,cars-60.jpg,DO,1,vpnl,2023-11-09_20h30.26.016,longbabyloc,2023.2.2,60.00797386125317,
,,,,,,,,226.82215171800635,37,cars-61.jpg,DO,1,vpnl,2023-11-09_20h30.26.016,longbabyloc,2023.2.2,60.00797386125317,
,,,,,,,,227.32243794000533,37,cars-62.jpg,DO,1,vpnl,2023-11-09_20h30.26.016,longbabyloc,2023.2.2,60.00797386125317,
,,,,,,,,227.8260711930052,37,cars-63.jpg,DO,1,vpnl,2023-11-09_20h30.26.016,longbabyloc,2023.2.2,60.00797386125317,
,,,,,,,,228.32249884100747,37,cars-64.jpg,DO,1,vpnl,2023-11-09_20h30.26.016,longbabyloc,2023.2.2,60.00797386125317,
,,,,,,,,228.82237996300682,38,hands-57.jpg,DO,1,vpnl,2023-11-09_20h30.26.016,longbabyloc,2023.2.2,60.00797386125317,
,,,,,,,,229.32236955199915,38,hands-58.jpg,DO,1,vpnl,2023-11-09_20h30.26.016,longbabyloc,2023.2.2,60.00797386125317,
,,,,,,,,229.82264216800104,38,hands-59.jpg,DO,1,vpnl,2023-11-09_20h30.26.016,longbabyloc,2023.2.2,60.00797386125317,
,,,,,,,,230.32233924300817,38,hands-60.jpg,DO,1,vpnl,2023-11-09_20h30.26.016,longbabyloc,2023.2.2,60.00797386125317,
,,,,,,,,230.82224969100207,38,hands-61.jpg,DO,1,vpnl,2023-11-09_20h30.26.016,longbabyloc,2023.2.2,60.00797386125317,
,,,,,,,,231.32233478300623,38,hands-62.jpg,DO,1,vpnl,2023-11-09_20h30.26.016,longbabyloc,2023.2.2,60.00797386125317,
,,,,,,,,231.82243759000266,38,hands-63.jpg,DO,1,vpnl,2023-11-09_20h30.26.016,longbabyloc,2023.2.2,60.00797386125317,
,,,,,,,,232.3223960010073,38,hands-64.jpg,DO,1,vpnl,2023-11-09_20h30.26.016,longbabyloc,2023.2.2,60.00797386125317,
,,,,,,,,232.82236462800938,39,faces-57.jpg,DO,1,vpnl,2023-11-09_20h30.26.016,longbabyloc,2023.2.2,60.00797386125317,
,,,,,,,,233.3223133720021,39,faces-58.jpg,DO,1,vpnl,2023-11-09_20h30.26.016,longbabyloc,2023.2.2,60.00797386125317,
,,,,,,,,233.82225958300114,39,faces-59.jpg,DO,1,vpnl,2023-11-09_20h30.26.016,longbabyloc,2023.2.2,60.00797386125317,
,,,,,,,,234.32239199400647,39,faces-60.jpg,DO,1,vpnl,2023-11-09_20h30.26.016,longbabyloc,2023.2.2,60.00797386125317,
,,,,,,,,234.82229189500504,39,faces-61.jpg,DO,1,vpnl,2023-11-09_20h30.26.016,longbabyloc,2023.2.2,60.00797386125317,
,,,,,,,,235.3220923790068,39,faces-62.jpg,DO,1,vpnl,2023-11-09_20h30.26.016,longbabyloc,2023.2.2,60.00797386125317,
,,,,,,,,235.82235564800794,39,faces-63.jpg,DO,1,vpnl,2023-11-09_20h30.26.016,longbabyloc,2023.2.2,60.00797386125317,
,,,,,,,,236.3222218160081,39,faces-64.jpg,DO,1,vpnl,2023-11-09_20h30.26.016,longbabyloc,2023.2.2,60.00797386125317,
,,,,,,,,236.82209209199937,40,blank-65.jpg,DO,1,vpnl,2023-11-09_20h30.26.016,longbabyloc,2023.2.2,60.00797386125317,
,,,,,,,,237.32232565899903,40,blank-66.jpg,DO,1,vpnl,2023-11-09_20h30.26.016,longbabyloc,2023.2.2,60.00797386125317,
,,,,,,,,237.82220057900122,40,blank-67.jpg,DO,1,vpnl,2023-11-09_20h30.26.016,longbabyloc,2023.2.2,60.00797386125317,
,,,,,,,,238.3220910890086,40,blank-68.jpg,DO,1,vpnl,2023-11-09_20h30.26.016,longbabyloc,2023.2.2,60.00797386125317,
,,,,,,,,238.8223700610106,40,blank-69.jpg,DO,1,vpnl,2023-11-09_20h30.26.016,longbabyloc,2023.2.2,60.00797386125317,
,,,,,,,,239.3223287340079,40,blank-70.jpg,DO,1,vpnl,2023-11-09_20h30.26.016,longbabyloc,2023.2.2,60.00797386125317,
,,,,,,,,239.8220441070007,40,blank-71.jpg,DO,1,vpnl,2023-11-09_20h30.26.016,longbabyloc,2023.2.2,60.00797386125317,
,,,,,,,,240.32221478600695,40,blank-72.jpg,DO,1,vpnl,2023-11-09_20h30.26.016,longbabyloc,2023.2.2,60.00797386125317,
,,,,,,,,240.82205491300556,41,scenes-57.jpg,DO,1,vpnl,2023-11-09_20h30.26.016,longbabyloc,2023.2.2,60.00797386125317,
,,,,,,,,241.3219919300027,41,scenes-58.jpg,DO,1,vpnl,2023-11-09_20h30.26.016,longbabyloc,2023.2.2,60.00797386125317,
,,,,,,,,241.8221582170081,41,scenes-59.jpg,DO,1,vpnl,2023-11-09_20h30.26.016,longbabyloc,2023.2.2,60.00797386125317,
,,,,,,,,242.32216199999675,41,scenes-60.jpg,DO,1,vpnl,2023-11-09_20h30.26.016,longbabyloc,2023.2.2,60.00797386125317,
,,,,,,,,242.8220300230023,41,scenes-61.jpg,DO,1,vpnl,2023-11-09_20h30.26.016,longbabyloc,2023.2.2,60.00797386125317,
,,,,,,,,243.32219367999642,41,scenes-62.jpg,DO,1,vpnl,2023-11-09_20h30.26.016,longbabyloc,2023.2.2,60.00797386125317,
,,,,,,,,243.82210677900002,41,scenes-63.jpg,DO,1,vpnl,2023-11-09_20h30.26.016,longbabyloc,2023.2.2,60.00797386125317,
,,,,,,,,244.3220677890058,41,scenes-64.jpg,DO,1,vpnl,2023-11-09_20h30.26.016,longbabyloc,2023.2.2,60.00797386125317,
,,,,,,,,244.8222274889995,42,hands-65.jpg,DO,1,vpnl,2023-11-09_20h30.26.016,longbabyloc,2023.2.2,60.00797386125317,
,,,,,,,,245.32199790299637,42,hands-66.jpg,DO,1,vpnl,2023-11-09_20h30.26.016,longbabyloc,2023.2.2,60.00797386125317,
,,,,,,,,245.82202222500928,42,hands-67.jpg,DO,1,vpnl,2023-11-09_20h30.26.016,longbabyloc,2023.2.2,60.00797386125317,
,,,,,,,,246.32240142399678,42,hands-68.jpg,DO,1,vpnl,2023-11-09_20h30.26.016,longbabyloc,2023.2.2,60.00797386125317,
,,,,,,,,246.82205677800812,42,hands-69.jpg,DO,1,vpnl,2023-11-09_20h30.26.016,longbabyloc,2023.2.2,60.00797386125317,
,,,,,,,,247.32187371600594,42,hands-70.jpg,DO,1,vpnl,2023-11-09_20h30.26.016,longbabyloc,2023.2.2,60.00797386125317,
,,,,,,,,247.82205734000308,42,hands-71.jpg,DO,1,vpnl,2023-11-09_20h30.26.016,longbabyloc,2023.2.2,60.00797386125317,
,,,,,,,,248.32204877201002,42,hands-72.jpg,DO,1,vpnl,2023-11-09_20h30.26.016,longbabyloc,2023.2.2,60.00797386125317,
,,,,,,,,248.82190685199748,43,faces-65.jpg,DO,1,vpnl,2023-11-09_20h30.26.016,longbabyloc,2023.2.2,60.00797386125317,
,,,,,,,,249.32210910700087,43,faces-66.jpg,DO,1,vpnl,2023-11-09_20h30.26.016,longbabyloc,2023.2.2,60.00797386125317,
,,,,,,,,249.82202484800655,43,faces-67.jpg,DO,1,vpnl,2023-11-09_20h30.26.016,longbabyloc,2023.2.2,60.00797386125317,
,,,,,,,,250.32175183700747,43,faces-68.jpg,DO,1,vpnl,2023-11-09_20h30.26.016,longbabyloc,2023.2.2,60.00797386125317,
,,,,,,,,250.82205840300594,43,faces-69.jpg,DO,1,vpnl,2023-11-09_20h30.26.016,longbabyloc,2023.2.2,60.00797386125317,
,,,,,,,,251.32187742899987,43,faces-70.jpg,DO,1,vpnl,2023-11-09_20h30.26.016,longbabyloc,2023.2.2,60.00797386125317,
,,,,,,,,251.8218457059993,43,faces-71.jpg,DO,1,vpnl,2023-11-09_20h30.26.016,longbabyloc,2023.2.2,60.00797386125317,
,,,,,,,,252.32212580399937,43,faces-72.jpg,DO,1,vpnl,2023-11-09_20h30.26.016,longbabyloc,2023.2.2,60.00797386125317,
,,,,,,,,252.82192875900364,44,cars-65.jpg,DO,1,vpnl,2023-11-09_20h30.26.016,longbabyloc,2023.2.2,60.00797386125317,
,,,,,,,,253.32189303800988,44,cars-66.jpg,DO,1,vpnl,2023-11-09_20h30.26.016,longbabyloc,2023.2.2,60.00797386125317,
,,,,,,,,253.82194725700538,44,cars-67.jpg,DO,1,vpnl,2023-11-09_20h30.26.016,longbabyloc,2023.2.2,60.00797386125317,
,,,,,,,,254.32197955700394,44,cars-68.jpg,DO,1,vpnl,2023-11-09_20h30.26.016,longbabyloc,2023.2.2,60.00797386125317,
,,,,,,,,254.82188208300795,44,cars-69.jpg,DO,1,vpnl,2023-11-09_20h30.26.016,longbabyloc,2023.2.2,60.00797386125317,
,,,,,,,,255.3219192270044,44,cars-70.jpg,DO,1,vpnl,2023-11-09_20h30.26.016,longbabyloc,2023.2.2,60.00797386125317,
,,,,,,,,255.82187678500486,44,cars-71.jpg,DO,1,vpnl,2023-11-09_20h30.26.016,longbabyloc,2023.2.2,60.00797386125317,
,,,,,,,,256.32188746299653,44,cars-72.jpg,DO,1,vpnl,2023-11-09_20h30.26.016,longbabyloc,2023.2.2,60.00797386125317,
,,,,,,,,256.8285539060016,45,scenes-65.jpg,DO,1,vpnl,2023-11-09_20h30.26.016,longbabyloc,2023.2.2,60.00797386125317,
,,,,,,,,257.3218717069976,45,scenes-66.jpg,DO,1,vpnl,2023-11-09_20h30.26.016,longbabyloc,2023.2.2,60.00797386125317,
,,,,,,,,257.8219578499993,45,scenes-67.jpg,DO,1,vpnl,2023-11-09_20h30.26.016,longbabyloc,2023.2.2,60.00797386125317,
,,,,,,,,258.3217076400033,45,scenes-68.jpg,DO,1,vpnl,2023-11-09_20h30.26.016,longbabyloc,2023.2.2,60.00797386125317,
,,,,,,,,258.82191472699924,45,scenes-69.jpg,DO,1,vpnl,2023-11-09_20h30.26.016,longbabyloc,2023.2.2,60.00797386125317,
,,,,,,,,259.3219195109996,45,scenes-70.jpg,DO,1,vpnl,2023-11-09_20h30.26.016,longbabyloc,2023.2.2,60.00797386125317,
,,,,,,,,259.82184412999777,45,scenes-71.jpg,DO,1,vpnl,2023-11-09_20h30.26.016,longbabyloc,2023.2.2,60.00797386125317,
,,,,,,,,260.3219038170064,45,scenes-72.jpg,DO,1,vpnl,2023-11-09_20h30.26.016,longbabyloc,2023.2.2,60.00797386125317,
,,,,,,,,260.8216645270004,46,blank-73.jpg,DO,1,vpnl,2023-11-09_20h30.26.016,longbabyloc,2023.2.2,60.00797386125317,
,,,,,,,,261.32152285600023,46,blank-74.jpg,DO,1,vpnl,2023-11-09_20h30.26.016,longbabyloc,2023.2.2,60.00797386125317,
,,,,,,,,261.82187197600433,46,blank-75.jpg,DO,1,vpnl,2023-11-09_20h30.26.016,longbabyloc,2023.2.2,60.00797386125317,
,,,,,,,,262.32197854699916,46,blank-76.jpg,DO,1,vpnl,2023-11-09_20h30.26.016,longbabyloc,2023.2.2,60.00797386125317,
,,,,,,,,262.8216631690011,46,blank-77.jpg,DO,1,vpnl,2023-11-09_20h30.26.016,longbabyloc,2023.2.2,60.00797386125317,
,,,,,,,,263.3218278620043,46,blank-78.jpg,DO,1,vpnl,2023-11-09_20h30.26.016,longbabyloc,2023.2.2,60.00797386125317,
,,,,,,,,263.8217988510005,46,blank-79.jpg,DO,1,vpnl,2023-11-09_20h30.26.016,longbabyloc,2023.2.2,60.00797386125317,
,,,,,,,,264.3217445170012,46,blank-80.jpg,DO,1,vpnl,2023-11-09_20h30.26.016,longbabyloc,2023.2.2,60.00797386125317,
,,,,,,,,264.82176574000914,47,cars-73.jpg,DO,1,vpnl,2023-11-09_20h30.26.016,longbabyloc,2023.2.2,60.00797386125317,
,,,,,,,,265.3216817670036,47,cars-74.jpg,DO,1,vpnl,2023-11-09_20h30.26.016,longbabyloc,2023.2.2,60.00797386125317,
,,,,,,,,265.8216315430036,47,cars-75.jpg,DO,1,vpnl,2023-11-09_20h30.26.016,longbabyloc,2023.2.2,60.00797386125317,
,,,,,,,,266.32176470301056,47,cars-76.jpg,DO,1,vpnl,2023-11-09_20h30.26.016,longbabyloc,2023.2.2,60.00797386125317,
,,,,,,,,266.82168356400507,47,cars-77.jpg,DO,1,vpnl,2023-11-09_20h30.26.016,longbabyloc,2023.2.2,60.00797386125317,
,,,,,,,,267.3217088750098,47,cars-78.jpg,DO,1,vpnl,2023-11-09_20h30.26.016,longbabyloc,2023.2.2,60.00797386125317,
,,,,,,,,267.82166909500665,47,cars-79.jpg,DO,1,vpnl,2023-11-09_20h30.26.016,longbabyloc,2023.2.2,60.00797386125317,
,,,,,,,,268.32168893900234,47,cars-80.jpg,DO,1,vpnl,2023-11-09_20h30.26.016,longbabyloc,2023.2.2,60.00797386125317,
,,,,,,,,268.82165072800126,48,hands-73.jpg,DO,1,vpnl,2023-11-09_20h30.26.016,longbabyloc,2023.2.2,60.00797386125317,
,,,,,,,,269.32508795800095,48,hands-74.jpg,DO,1,vpnl,2023-11-09_20h30.26.016,longbabyloc,2023.2.2,60.00797386125317,
,,,,,,,,269.8219581870071,48,hands-75.jpg,DO,1,vpnl,2023-11-09_20h30.26.016,longbabyloc,2023.2.2,60.00797386125317,
,,,,,,,,270.32161359900783,48,hands-76.jpg,DO,1,vpnl,2023-11-09_20h30.26.016,longbabyloc,2023.2.2,60.00797386125317,
,,,,,,,,270.82157121899945,48,hands-77.jpg,DO,1,vpnl,2023-11-09_20h30.26.016,longbabyloc,2023.2.2,60.00797386125317,
,,,,,,,,271.32155344799685,48,hands-78.jpg,DO,1,vpnl,2023-11-09_20h30.26.016,longbabyloc,2023.2.2,60.00797386125317,
,,,,,,,,271.8216631820105,48,hands-79.jpg,DO,1,vpnl,2023-11-09_20h30.26.016,longbabyloc,2023.2.2,60.00797386125317,
,,,,,,,,272.32174846500857,48,hands-80.jpg,DO,1,vpnl,2023-11-09_20h30.26.016,longbabyloc,2023.2.2,60.00797386125317,
,,,,,,,,272.82206438500725,49,blank-81.jpg,DO,1,vpnl,2023-11-09_20h30.26.016,longbabyloc,2023.2.2,60.00797386125317,
,,,,,,,,273.32195923100517,49,blank-82.jpg,DO,1,vpnl,2023-11-09_20h30.26.016,longbabyloc,2023.2.2,60.00797386125317,
,,,,,,,,273.82176383500337,49,blank-83.jpg,DO,1,vpnl,2023-11-09_20h30.26.016,longbabyloc,2023.2.2,60.00797386125317,
,,,,,,,,274.3220075840072,49,blank-84.jpg,DO,1,vpnl,2023-11-09_20h30.26.016,longbabyloc,2023.2.2,60.00797386125317,
,,,,,,,,274.8217794710072,49,blank-85.jpg,DO,1,vpnl,2023-11-09_20h30.26.016,longbabyloc,2023.2.2,60.00797386125317,
,,,,,,,,275.3215393139981,49,blank-86.jpg,DO,1,vpnl,2023-11-09_20h30.26.016,longbabyloc,2023.2.2,60.00797386125317,
,,,,,,,,275.82188109200797,49,blank-87.jpg,DO,1,vpnl,2023-11-09_20h30.26.016,longbabyloc,2023.2.2,60.00797386125317,
,,,,,,,,276.32171920999826,49,blank-88.jpg,DO,1,vpnl,2023-11-09_20h30.26.016,longbabyloc,2023.2.2,60.00797386125317,
,,,,,,,,276.8216798909998,50,faces-73.jpg,DO,1,vpnl,2023-11-09_20h30.26.016,longbabyloc,2023.2.2,60.00797386125317,
,,,,,,,,277.3218121289974,50,faces-74.jpg,DO,1,vpnl,2023-11-09_20h30.26.016,longbabyloc,2023.2.2,60.00797386125317,
,,,,,,,,277.8218480159994,50,faces-75.jpg,DO,1,vpnl,2023-11-09_20h30.26.016,longbabyloc,2023.2.2,60.00797386125317,
,,,,,,,,278.3216557780106,50,faces-76.jpg,DO,1,vpnl,2023-11-09_20h30.26.016,longbabyloc,2023.2.2,60.00797386125317,
,,,,,,,,278.8214651580056,50,faces-77.jpg,DO,1,vpnl,2023-11-09_20h30.26.016,longbabyloc,2023.2.2,60.00797386125317,
,,,,,,,,279.3217345680023,50,faces-78.jpg,DO,1,vpnl,2023-11-09_20h30.26.016,longbabyloc,2023.2.2,60.00797386125317,
,,,,,,,,279.8217095040018,50,faces-79.jpg,DO,1,vpnl,2023-11-09_20h30.26.016,longbabyloc,2023.2.2,60.00797386125317,
,,,,,,,,280.32144872599747,50,faces-80.jpg,DO,1,vpnl,2023-11-09_20h30.26.016,longbabyloc,2023.2.2,60.00797386125317,
,,,,,,,,280.8216613179975,51,scenes-73.jpg,DO,1,vpnl,2023-11-09_20h30.26.016,longbabyloc,2023.2.2,60.00797386125317,
,,,,,,,,281.3215810719994,51,scenes-74.jpg,DO,1,vpnl,2023-11-09_20h30.26.016,longbabyloc,2023.2.2,60.00797386125317,
,,,,,,,,281.8213883480057,51,scenes-75.jpg,DO,1,vpnl,2023-11-09_20h30.26.016,longbabyloc,2023.2.2,60.00797386125317,
,,,,,,,,282.32219825300854,51,scenes-76.jpg,DO,1,vpnl,2023-11-09_20h30.26.016,longbabyloc,2023.2.2,60.00797386125317,
,,,,,,,,282.8215594229987,51,scenes-77.jpg,DO,1,vpnl,2023-11-09_20h30.26.016,longbabyloc,2023.2.2,60.00797386125317,
,,,,,,,,283.3214696979994,51,scenes-78.jpg,DO,1,vpnl,2023-11-09_20h30.26.016,longbabyloc,2023.2.2,60.00797386125317,
,,,,,,,,283.8247803520062,51,scenes-79.jpg,DO,1,vpnl,2023-11-09_20h30.26.016,longbabyloc,2023.2.2,60.00797386125317,
,,,,,,,,284.32150429399917,51,scenes-80.jpg,DO,1,vpnl,2023-11-09_20h30.26.016,longbabyloc,2023.2.2,60.00797386125317,
,,,,,,,,284.82518602799973,52,blank-89.jpg,DO,1,vpnl,2023-11-09_20h30.26.016,longbabyloc,2023.2.2,60.00797386125317,
,,,,,,,,285.3211652790051,52,blank-90.jpg,DO,1,vpnl,2023-11-09_20h30.26.016,longbabyloc,2023.2.2,60.00797386125317,
,,,,,,,,285.82151152299775,52,blank-91.jpg,DO,1,vpnl,2023-11-09_20h30.26.016,longbabyloc,2023.2.2,60.00797386125317,
,,,,,,,,286.3213462749991,52,blank-92.jpg,DO,1,vpnl,2023-11-09_20h30.26.016,longbabyloc,2023.2.2,60.00797386125317,
,,,,,,,,286.82125998100673,52,blank-93.jpg,DO,1,vpnl,2023-11-09_20h30.26.016,longbabyloc,2023.2.2,60.00797386125317,
,,,,,,,,287.32150308000564,52,blank-94.jpg,DO,1,vpnl,2023-11-09_20h30.26.016,longbabyloc,2023.2.2,60.00797386125317,
,,,,,,,,287.8214072730043,52,blank-95.jpg,DO,1,vpnl,2023-11-09_20h30.26.016,longbabyloc,2023.2.2,60.00797386125317,
,,,,,,,,288.32127163599944,52,blank-96.jpg,DO,1,vpnl,2023-11-09_20h30.26.016,longbabyloc,2023.2.2,60.00797386125317,
,,,,,,,,288.8215299900039,53,faces-81.jpg,DO,1,vpnl,2023-11-09_20h30.26.016,longbabyloc,2023.2.2,60.00797386125317,
,,,,,,,,289.32137249301013,53,faces-82.jpg,DO,1,vpnl,2023-11-09_20h30.26.016,longbabyloc,2023.2.2,60.00797386125317,
,,,,,,,,289.82123575900914,53,faces-83.jpg,DO,1,vpnl,2023-11-09_20h30.26.016,longbabyloc,2023.2.2,60.00797386125317,
,,,,,,,,290.32108437300485,53,faces-84.jpg,DO,1,vpnl,2023-11-09_20h30.26.016,longbabyloc,2023.2.2,60.00797386125317,
,,,,,,,,290.8214294799982,53,faces-85.jpg,DO,1,vpnl,2023-11-09_20h30.26.016,longbabyloc,2023.2.2,60.00797386125317,
,,,,,,,,291.32121938600903,53,faces-86.jpg,DO,1,vpnl,2023-11-09_20h30.26.016,longbabyloc,2023.2.2,60.00797386125317,
,,,,,,,,291.8210844020068,53,faces-87.jpg,DO,1,vpnl,2023-11-09_20h30.26.016,longbabyloc,2023.2.2,60.00797386125317,
,,,,,,,,292.3214411610097,53,faces-88.jpg,DO,1,vpnl,2023-11-09_20h30.26.016,longbabyloc,2023.2.2,60.00797386125317,
,,,,,,,,292.82123427699844,54,scenes-81.jpg,DO,1,vpnl,2023-11-09_20h30.26.016,longbabyloc,2023.2.2,60.00797386125317,
,,,,,,,,293.3211074389983,54,scenes-82.jpg,DO,1,vpnl,2023-11-09_20h30.26.016,longbabyloc,2023.2.2,60.00797386125317,
,,,,,,,,293.8215408640099,54,scenes-83.jpg,DO,1,vpnl,2023-11-09_20h30.26.016,longbabyloc,2023.2.2,60.00797386125317,
,,,,,,,,294.32127128500724,54,scenes-84.jpg,DO,1,vpnl,2023-11-09_20h30.26.016,longbabyloc,2023.2.2,60.00797386125317,
,,,,,,,,294.8211959400069,54,scenes-85.jpg,DO,1,vpnl,2023-11-09_20h30.26.016,longbabyloc,2023.2.2,60.00797386125317,
,,,,,,,,295.32098631000554,54,scenes-86.jpg,DO,1,vpnl,2023-11-09_20h30.26.016,longbabyloc,2023.2.2,60.00797386125317,
,,,,,,,,295.8211927240045,54,scenes-87.jpg,DO,1,vpnl,2023-11-09_20h30.26.016,longbabyloc,2023.2.2,60.00797386125317,
,,,,,,,,296.3212639060075,54,scenes-88.jpg,DO,1,vpnl,2023-11-09_20h30.26.016,longbabyloc,2023.2.2,60.00797386125317,
,,,,,,,,296.82085636300326,55,cars-81.jpg,DO,1,vpnl,2023-11-09_20h30.26.016,longbabyloc,2023.2.2,60.00797386125317,
,,,,,,,,297.32114512100816,55,cars-82.jpg,DO,1,vpnl,2023-11-09_20h30.26.016,longbabyloc,2023.2.2,60.00797386125317,
,,,,,,,,297.82101215999865,55,cars-83.jpg,DO,1,vpnl,2023-11-09_20h30.26.016,longbabyloc,2023.2.2,60.00797386125317,
,,,,,,,,298.32095408999885,55,cars-84.jpg,DO,1,vpnl,2023-11-09_20h30.26.016,longbabyloc,2023.2.2,60.00797386125317,
,,,,,,,,298.82695725999656,55,cars-85.jpg,DO,1,vpnl,2023-11-09_20h30.26.016,longbabyloc,2023.2.2,60.00797386125317,
,,,,,,,,299.32097724200867,55,cars-86.jpg,DO,1,vpnl,2023-11-09_20h30.26.016,longbabyloc,2023.2.2,60.00797386125317,
,,,,,,,,299.8209987739974,55,cars-87.jpg,DO,1,vpnl,2023-11-09_20h30.26.016,longbabyloc,2023.2.2,60.00797386125317,
,,,,,,,,300.32088518900855,55,cars-88.jpg,DO,1,vpnl,2023-11-09_20h30.26.016,longbabyloc,2023.2.2,60.00797386125317,
,,,,,,,,300.82099575700704,56,hands-81.jpg,DO,1,vpnl,2023-11-09_20h30.26.016,longbabyloc,2023.2.2,60.00797386125317,
,,,,,,,,301.3208779520064,56,hands-82.jpg,DO,1,vpnl,2023-11-09_20h30.26.016,longbabyloc,2023.2.2,60.00797386125317,
,,,,,,,,301.82078579200606,56,hands-83.jpg,DO,1,vpnl,2023-11-09_20h30.26.016,longbabyloc,2023.2.2,60.00797386125317,
,,,,,,,,302.3212617590034,56,hands-84.jpg,DO,1,vpnl,2023-11-09_20h30.26.016,longbabyloc,2023.2.2,60.00797386125317,
,,,,,,,,302.8209306659992,56,hands-85.jpg,DO,1,vpnl,2023-11-09_20h30.26.016,longbabyloc,2023.2.2,60.00797386125317,
,,,,,,,,303.32087575701007,56,hands-86.jpg,DO,1,vpnl,2023-11-09_20h30.26.016,longbabyloc,2023.2.2,60.00797386125317,
,,,,,,,,303.82072114200855,56,hands-87.jpg,DO,1,vpnl,2023-11-09_20h30.26.016,longbabyloc,2023.2.2,60.00797386125317,
,,,,,,,,304.32092371900217,56,hands-88.jpg,DO,1,vpnl,2023-11-09_20h30.26.016,longbabyloc,2023.2.2,60.00797386125317,
,,,,,,,,304.82095117200515,57,faces-89.jpg,DO,1,vpnl,2023-11-09_20h30.26.016,longbabyloc,2023.2.2,60.00797386125317,
,,,,,,,,305.32066105100967,57,faces-90.jpg,DO,1,vpnl,2023-11-09_20h30.26.016,longbabyloc,2023.2.2,60.00797386125317,
,,,,,,,,305.8208504409995,57,faces-91.jpg,DO,1,vpnl,2023-11-09_20h30.26.016,longbabyloc,2023.2.2,60.00797386125317,
,,,,,,,,306.3207324910036,57,faces-92.jpg,DO,1,vpnl,2023-11-09_20h30.26.016,longbabyloc,2023.2.2,60.00797386125317,
,,,,,,,,306.82080074600526,57,faces-93.jpg,DO,1,vpnl,2023-11-09_20h30.26.016,longbabyloc,2023.2.2,60.00797386125317,
,,,,,,,,307.3208971970016,57,faces-94.jpg,DO,1,vpnl,2023-11-09_20h30.26.016,longbabyloc,2023.2.2,60.00797386125317,
,,,,,,,,307.82082583900774,57,faces-95.jpg,DO,1,vpnl,2023-11-09_20h30.26.016,longbabyloc,2023.2.2,60.00797386125317,
,,,,,,,,308.3207571130042,57,faces-96.jpg,DO,1,vpnl,2023-11-09_20h30.26.016,longbabyloc,2023.2.2,60.00797386125317,
,,,,,,,,308.8206740730093,58,cars-89.jpg,DO,1,vpnl,2023-11-09_20h30.26.016,longbabyloc,2023.2.2,60.00797386125317,
,,,,,,,,309.32088001500233,58,cars-90.jpg,DO,1,vpnl,2023-11-09_20h30.26.016,longbabyloc,2023.2.2,60.00797386125317,
,,,,,,,,309.82077224300883,58,cars-91.jpg,DO,1,vpnl,2023-11-09_20h30.26.016,longbabyloc,2023.2.2,60.00797386125317,
,,,,,,,,310.32054345399956,58,cars-92.jpg,DO,1,vpnl,2023-11-09_20h30.26.016,longbabyloc,2023.2.2,60.00797386125317,
,,,,,,,,310.82102467100776,58,cars-93.jpg,DO,1,vpnl,2023-11-09_20h30.26.016,longbabyloc,2023.2.2,60.00797386125317,
,,,,,,,,311.32070327200927,58,cars-94.jpg,DO,1,vpnl,2023-11-09_20h30.26.016,longbabyloc,2023.2.2,60.00797386125317,
,,,,,,,,311.8206114200002,58,cars-95.jpg,DO,1,vpnl,2023-11-09_20h30.26.016,longbabyloc,2023.2.2,60.00797386125317,
,,,,,,,,312.32060326400097,58,cars-96.jpg,DO,1,vpnl,2023-11-09_20h30.26.016,longbabyloc,2023.2.2,60.00797386125317,
,,,,,,,,312.82076277100714,59,hands-89.jpg,DO,1,vpnl,2023-11-09_20h30.26.016,longbabyloc,2023.2.2,60.00797386125317,
,,,,,,,,313.320667811,59,hands-90.jpg,DO,1,vpnl,2023-11-09_20h30.26.016,longbabyloc,2023.2.2,60.00797386125317,
,,,,,,,,313.82060327100044,59,hands-91.jpg,DO,1,vpnl,2023-11-09_20h30.26.016,longbabyloc,2023.2.2,60.00797386125317,
,,,,,,,,314.32070770300925,59,hands-92.jpg,DO,1,vpnl,2023-11-09_20h30.26.016,longbabyloc,2023.2.2,60.00797386125317,
,,,,,,,,314.8207248450053,59,hands-93.jpg,DO,1,vpnl,2023-11-09_20h30.26.016,longbabyloc,2023.2.2,60.00797386125317,
,,,,,,,,315.32061213500856,59,hands-94.jpg,DO,1,vpnl,2023-11-09_20h30.26.016,longbabyloc,2023.2.2,60.00797386125317,
,,,,,,,,315.82058372600295,59,hands-95.jpg,DO,1,vpnl,2023-11-09_20h30.26.016,longbabyloc,2023.2.2,60.00797386125317,
,,,,,,,,316.3206404800003,59,hands-96.jpg,DO,1,vpnl,2023-11-09_20h30.26.016,longbabyloc,2023.2.2,60.00797386125317,
,,,,,,,,316.8206226300099,60,blank-97.jpg,DO,1,vpnl,2023-11-09_20h30.26.016,longbabyloc,2023.2.2,60.00797386125317,
,,,,,,,,317.32059071700496,60,blank-98.jpg,DO,1,vpnl,2023-11-09_20h30.26.016,longbabyloc,2023.2.2,60.00797386125317,
,,,,,,,,317.8206453330058,60,blank-99.jpg,DO,1,vpnl,2023-11-09_20h30.26.016,longbabyloc,2023.2.2,60.00797386125317,
,,,,,,,,318.32067742700747,60,blank-100.jpg,DO,1,vpnl,2023-11-09_20h30.26.016,longbabyloc,2023.2.2,60.00797386125317,
,,,,,,,,318.8206114450004,60,blank-101.jpg,DO,1,vpnl,2023-11-09_20h30.26.016,longbabyloc,2023.2.2,60.00797386125317,
,,,,,,,,319.32057459400676,60,blank-102.jpg,DO,1,vpnl,2023-11-09_20h30.26.016,longbabyloc,2023.2.2,60.00797386125317,
,,,,,,,,319.8206410200073,60,blank-103.jpg,DO,1,vpnl,2023-11-09_20h30.26.016,longbabyloc,2023.2.2,60.00797386125317,
,,,,,,,,320.3204848840105,60,blank-104.jpg,DO,1,vpnl,2023-11-09_20h30.26.016,longbabyloc,2023.2.2,60.00797386125317,
,,,,,,,,320.82046706799883,61,scenes-89.jpg,DO,1,vpnl,2023-11-09_20h30.26.016,longbabyloc,2023.2.2,60.00797386125317,
,,,,,,,,321.32048332299746,61,scenes-90.jpg,DO,1,vpnl,2023-11-09_20h30.26.016,longbabyloc,2023.2.2,60.00797386125317,
,,,,,,,,321.82050786699983,61,scenes-91.jpg,DO,1,vpnl,2023-11-09_20h30.26.016,longbabyloc,2023.2.2,60.00797386125317,
,,,,,,,,322.3205035060091,61,scenes-92.jpg,DO,1,vpnl,2023-11-09_20h30.26.016,longbabyloc,2023.2.2,60.00797386125317,
,,,,,,,,322.82042951400217,61,scenes-93.jpg,DO,1,vpnl,2023-11-09_20h30.26.016,longbabyloc,2023.2.2,60.00797386125317,
,,,,,,,,323.3205193160102,61,scenes-94.jpg,DO,1,vpnl,2023-11-09_20h30.26.016,longbabyloc,2023.2.2,60.00797386125317,
,,,,,,,,323.8205014499981,61,scenes-95.jpg,DO,1,vpnl,2023-11-09_20h30.26.016,longbabyloc,2023.2.2,60.00797386125317,
,,,,,,,,324.32044483500067,61,scenes-96.jpg,DO,1,vpnl,2023-11-09_20h30.26.016,longbabyloc,2023.2.2,60.00797386125317,
,,,,,,,,324.8205242380063,62,blank-105.jpg,DO,1,vpnl,2023-11-09_20h30.26.016,longbabyloc,2023.2.2,60.00797386125317,
,,,,,,,,325.32038702000864,62,blank-106.jpg,DO,1,vpnl,2023-11-09_20h30.26.016,longbabyloc,2023.2.2,60.00797386125317,
,,,,,,,,325.82043013200746,62,blank-107.jpg,DO,1,vpnl,2023-11-09_20h30.26.016,longbabyloc,2023.2.2,60.00797386125317,
,,,,,,,,326.320385405008,62,blank-108.jpg,DO,1,vpnl,2023-11-09_20h30.26.016,longbabyloc,2023.2.2,60.00797386125317,
,,,,,,,,326.8204604830098,62,blank-109.jpg,DO,1,vpnl,2023-11-09_20h30.26.016,longbabyloc,2023.2.2,60.00797386125317,
,,,,,,,,327.3205816980044,62,blank-110.jpg,DO,1,vpnl,2023-11-09_20h30.26.016,longbabyloc,2023.2.2,60.00797386125317,
,,,,,,,,327.8203867580014,62,blank-111.jpg,DO,1,vpnl,2023-11-09_20h30.26.016,longbabyloc,2023.2.2,60.00797386125317,
,,,,,,,,328.32044259300164,62,blank-112.jpg,DO,1,vpnl,2023-11-09_20h30.26.016,longbabyloc,2023.2.2,60.00797386125317,
