thisRow.t,notes,waiting_for_trigger_text.started,trigger.started,trigger.keys,trigger.rt,countdown.started,trial.stopped,stimuli.started,condition,stim_name,participant,run,user,date,expName,psychopyVersion,frameRate,
,,994.9343229939986,994.9343229939986,t,52.842043789991294,,,,,,DO,1,vpnl,2023-11-09_20h30.26.016,longbabyloc,2023.2.2,60.00797386125317,
,,,,,,1047.8061729830079,58.87730499799363,1053.853400677006,1,blank.mp4,DO,1,vpnl,2023-11-09_20h30.26.016,longbabyloc,2023.2.2,60.00797386125317,
,,,,,,,,1057.9552315710025,2,IK_hands_4.mp4,DO,1,vpnl,2023-11-09_20h30.26.016,longbabyloc,2023.2.2,60.00797386125317,
,,,,,,,,1061.9680088260066,3,BS_1.mp4,DO,1,vpnl,2023-11-09_20h30.26.016,longbabyloc,2023.2.2,60.00797386125317,
,,,,,,,,1065.9867241600004,4,racecar_1.mp4,DO,1,vpnl,2023-11-09_20h30.26.016,longbabyloc,2023.2.2,60.00797386125317,
,,,,,,,,1069.9860637189995,5,blank.mp4,DO,1,vpnl,2023-11-09_20h30.26.016,longbabyloc,2023.2.2,60.00797386125317,
,,,,,,,,1073.9841180320072,6,widejunglewaterfall.mp4,DO,1,vpnl,2023-11-09_20h30.26.016,longbabyloc,2023.2.2,60.00797386125317,
,,,,,,,,1077.9860260490095,7,SE_hands_1.mp4,DO,1,vpnl,2023-11-09_20h30.26.016,longbabyloc,2023.2.2,60.00797386125317,
,,,,,,,,1081.9747039650101,8,JO_4.mp4,DO,1,vpnl,2023-11-09_20h30.26.016,longbabyloc,2023.2.2,60.00797386125317,
,,,,,,,,1085.9638712200103,9,rivernearbridge.mp4,DO,1,vpnl,2023-11-09_20h30.26.016,longbabyloc,2023.2.2,60.00797386125317,
,,,,,,,,1089.984298483003,10,blank.mp4,DO,1,vpnl,2023-11-09_20h30.26.016,longbabyloc,2023.2.2,60.00797386125317,
,,,,,,,,1093.9990283420047,11,dumptruck9_1.mp4,DO,1,vpnl,2023-11-09_20h30.26.016,longbabyloc,2023.2.2,60.00797386125317,
,,,,,,,,1097.9930754899979,12,SS_hands_4.mp4,DO,1,vpnl,2023-11-09_20h30.26.016,longbabyloc,2023.2.2,60.00797386125317,
,,,,,,,,1101.9938417230005,13,blank.mp4,DO,1,vpnl,2023-11-09_20h30.26.016,longbabyloc,2023.2.2,60.00797386125317,
,,,,,,,,1106.0035697840067,14,JY_2.mp4,DO,1,vpnl,2023-11-09_20h30.26.016,longbabyloc,2023.2.2,60.00797386125317,
,,,,,,,,1109.955527172002,15,forestwaterfalllow.mp4,DO,1,vpnl,2023-11-09_20h30.26.016,longbabyloc,2023.2.2,60.00797386125317,
,,,,,,,,1113.9862042890018,16,dumptruck5_1.mp4,DO,1,vpnl,2023-11-09_20h30.26.016,longbabyloc,2023.2.2,60.00797386125317,
,,,,,,,,1117.989027017,17,mossyrockstream.mp4,DO,1,vpnl,2023-11-09_20h30.26.016,longbabyloc,2023.2.2,60.00797386125317,
,,,,,,,,1121.988494810008,18,rccar_2.mp4,DO,1,vpnl,2023-11-09_20h30.26.016,longbabyloc,2023.2.2,60.00797386125317,
,,,,,,,,1125.9922884240077,19,blank.mp4,DO,1,vpnl,2023-11-09_20h30.26.016,longbabyloc,2023.2.2,60.00797386125317,
,,,,,,,,1129.9856042000029,20,IK_2.mp4,DO,1,vpnl,2023-11-09_20h30.26.016,longbabyloc,2023.2.2,60.00797386125317,
,,,,,,,,1133.9805256490072,21,DO_hands_4.mp4,DO,1,vpnl,2023-11-09_20h30.26.016,longbabyloc,2023.2.2,60.00797386125317,
,,,,,,,,1137.9930392329989,22,yellowexcavator_4.mp4,DO,1,vpnl,2023-11-09_20h30.26.016,longbabyloc,2023.2.2,60.00797386125317,
,,,,,,,,1141.9703861980088,23,KW_hands_2.mp4,DO,1,vpnl,2023-11-09_20h30.26.016,longbabyloc,2023.2.2,60.00797386125317,
,,,,,,,,1145.957876569999,24,mountainstreamblue.mp4,DO,1,vpnl,2023-11-09_20h30.26.016,longbabyloc,2023.2.2,60.00797386125317,
,,,,,,,,1149.9834125089983,25,BP_1.mp4,DO,1,vpnl,2023-11-09_20h30.26.016,longbabyloc,2023.2.2,60.00797386125317,
,,,,,,,,1153.9789192780008,26,blank.mp4,DO,1,vpnl,2023-11-09_20h30.26.016,longbabyloc,2023.2.2,60.00797386125317,
,,,,,,,,1157.968295327999,27,sunnyclouds.mp4,DO,1,vpnl,2023-11-09_20h30.26.016,longbabyloc,2023.2.2,60.00797386125317,
,,,,,,,,1161.9651717360102,28,blank.mp4,DO,1,vpnl,2023-11-09_20h30.26.016,longbabyloc,2023.2.2,60.00797386125317,
,,,,,,,,1165.9506314590108,29,dumptruck3_1.mp4,DO,1,vpnl,2023-11-09_20h30.26.016,longbabyloc,2023.2.2,60.00797386125317,
,,,,,,,,1169.9751611910033,30,JY_hands_3.mp4,DO,1,vpnl,2023-11-09_20h30.26.016,longbabyloc,2023.2.2,60.00797386125317,
,,,,,,,,1173.9587383940088,31,KP_1.mp4,DO,1,vpnl,2023-11-09_20h30.26.016,longbabyloc,2023.2.2,60.00797386125317,
,,,,,,,,1177.981738624003,32,car8_1.mp4,DO,1,vpnl,2023-11-09_20h30.26.016,longbabyloc,2023.2.2,60.00797386125317,
,,,,,,,,1181.9797682670032,33,AX_3.mp4,DO,1,vpnl,2023-11-09_20h30.26.016,longbabyloc,2023.2.2,60.00797386125317,
,,,,,,,,1185.9801704200072,34,JC_hands_1.mp4,DO,1,vpnl,2023-11-09_20h30.26.016,longbabyloc,2023.2.2,60.00797386125317,
,,,,,,,,1189.9669773100031,35,blank.mp4,DO,1,vpnl,2023-11-09_20h30.26.016,longbabyloc,2023.2.2,60.00797386125317,
,,,,,,,,1193.9984285880055,36,mountainrain.mp4,DO,1,vpnl,2023-11-09_20h30.26.016,longbabyloc,2023.2.2,60.00797386125317,
,,,,,,,,1197.9859505439963,37,KW_3.mp4,DO,1,vpnl,2023-11-09_20h30.26.016,longbabyloc,2023.2.2,60.00797386125317,
,,,,,,,,1201.9645520339982,38,AX_hands_1.mp4,DO,1,vpnl,2023-11-09_20h30.26.016,longbabyloc,2023.2.2,60.00797386125317,
,,,,,,,,1206.0054086790042,39,blank.mp4,DO,1,vpnl,2023-11-09_20h30.26.016,longbabyloc,2023.2.2,60.00797386125317,
,,,,,,,,1209.9510470800014,40,blackexcavator_4.mp4,DO,1,vpnl,2023-11-09_20h30.26.016,longbabyloc,2023.2.2,60.00797386125317,
,,,,,,,,1213.9688449630048,41,riverwithflowers.mp4,DO,1,vpnl,2023-11-09_20h30.26.016,longbabyloc,2023.2.2,60.00797386125317,
,,,,,,,,1217.961654578001,42,DO_3.mp4,DO,1,vpnl,2023-11-09_20h30.26.016,longbabyloc,2023.2.2,60.00797386125317,
,,,,,,,,1221.958369066997,43,blueexcavator_2.mp4,DO,1,vpnl,2023-11-09_20h30.26.016,longbabyloc,2023.2.2,60.00797386125317,
,,,,,,,,1225.9477645860024,44,blank.mp4,DO,1,vpnl,2023-11-09_20h30.26.016,longbabyloc,2023.2.2,60.00797386125317,
,,,,,,,,1229.9826069789997,45,KP_hands_4.mp4,DO,1,vpnl,2023-11-09_20h30.26.016,longbabyloc,2023.2.2,60.00797386125317,
,,,,,,,,1233.9630332360102,46,beachwithdriftwood.mp4,DO,1,vpnl,2023-11-09_20h30.26.016,longbabyloc,2023.2.2,60.00797386125317,
,,,,,,,,1237.9847183480015,47,BS_hands_4.mp4,DO,1,vpnl,2023-11-09_20h30.26.016,longbabyloc,2023.2.2,60.00797386125317,
,,,,,,,,1241.9739715280011,48,car4_1.mp4,DO,1,vpnl,2023-11-09_20h30.26.016,longbabyloc,2023.2.2,60.00797386125317,
,,,,,,,,1245.9690828349994,49,streambed.mp4,DO,1,vpnl,2023-11-09_20h30.26.016,longbabyloc,2023.2.2,60.00797386125317,
,,,,,,,,1249.997841917997,50,SE_1.mp4,DO,1,vpnl,2023-11-09_20h30.26.016,longbabyloc,2023.2.2,60.00797386125317,
,,,,,,,,1253.9757369260042,51,blank.mp4,DO,1,vpnl,2023-11-09_20h30.26.016,longbabyloc,2023.2.2,60.00797386125317,
,,,,,,,,1257.9691677810042,52,JC_4.mp4,DO,1,vpnl,2023-11-09_20h30.26.016,longbabyloc,2023.2.2,60.00797386125317,
,,,,,,,,1261.9793599149998,53,blank.mp4,DO,1,vpnl,2023-11-09_20h30.26.016,longbabyloc,2023.2.2,60.00797386125317,
,,,,,,,,1265.942647422009,54,JO_hands_2.mp4,DO,1,vpnl,2023-11-09_20h30.26.016,longbabyloc,2023.2.2,60.00797386125317,
,,,,,,,,1269.9751821190002,55,dumptruck2_1.mp4,DO,1,vpnl,2023-11-09_20h30.26.016,longbabyloc,2023.2.2,60.00797386125317,
,,,,,,,,1274.0206575159973,56,rockystreamhills.mp4,DO,1,vpnl,2023-11-09_20h30.26.016,longbabyloc,2023.2.2,60.00797386125317,
,,,,,,,,1277.9683514390053,57,SS_4.mp4,DO,1,vpnl,2023-11-09_20h30.26.016,longbabyloc,2023.2.2,60.00797386125317,
,,,,,,,,1282.0197245620075,58,BP_hands_3.mp4,DO,1,vpnl,2023-11-09_20h30.26.016,longbabyloc,2023.2.2,60.00797386125317,
,,,,,,,,1285.9538379970036,59,blank.mp4,DO,1,vpnl,2023-11-09_20h30.26.016,longbabyloc,2023.2.2,60.00797386125317,
,,,,,,,,1289.9949992850015,60,car6_1.mp4,DO,1,vpnl,2023-11-09_20h30.26.016,longbabyloc,2023.2.2,60.00797386125317,
,,,,,,,,1293.9920823349967,61,blueforeststream.mp4,DO,1,vpnl,2023-11-09_20h30.26.016,longbabyloc,2023.2.2,60.00797386125317,
,,,,,,,,1301.176215768006,62,blank.mp4,DO,1,vpnl,2023-11-09_20h30.26.016,longbabyloc,2023.2.2,60.00797386125317,
