thisRow.t,notes,waiting_for_trigger_text.started,trigger.started,trigger.keys,trigger.rt,countdown.started,trial.stopped,stimuli.started,condition,stim_name,stimuli.stopped,participant,run,user,date,expName,psychopyVersion,frameRate,
,,298.5553372860013,298.5553372860013,t,60.08862816399778,,,,,,,KN,1,vpnl,2023-11-15_20h39.46.667,shortbabyloc,2023.2.2,59.927673889030366,
,,,,,,358.664463152003,66.11732262000442,364.67719600800774,1,blank-33.jpg,,KN,1,vpnl,2023-11-15_20h39.46.667,shortbabyloc,2023.2.2,59.927673889030366,
,,,,,,,,365.17763427201135,1,blank-34.jpg,,KN,1,vpnl,2023-11-15_20h39.46.667,shortbabyloc,2023.2.2,59.927673889030366,
,,,,,,,,365.6765886290086,1,blank-35.jpg,,KN,1,vpnl,2023-11-15_20h39.46.667,shortbabyloc,2023.2.2,59.927673889030366,
,,,,,,,,366.1773261280032,1,blank-36.jpg,,KN,1,vpnl,2023-11-15_20h39.46.667,shortbabyloc,2023.2.2,59.927673889030366,
,,,,,,,,366.6774995700107,1,blank-37.jpg,,KN,1,vpnl,2023-11-15_20h39.46.667,shortbabyloc,2023.2.2,59.927673889030366,
,,,,,,,,367.1771951940027,1,blank-38.jpg,,KN,1,vpnl,2023-11-15_20h39.46.667,shortbabyloc,2023.2.2,59.927673889030366,
,,,,,,,,367.6773788020073,1,blank-39.jpg,,KN,1,vpnl,2023-11-15_20h39.46.667,shortbabyloc,2023.2.2,59.927673889030366,
,,,,,,,,368.1774129080004,1,blank-40.jpg,,KN,1,vpnl,2023-11-15_20h39.46.667,shortbabyloc,2023.2.2,59.927673889030366,
,,,,,,,,368.67658801100333,2,faces-33.jpg,,KN,1,vpnl,2023-11-15_20h39.46.667,shortbabyloc,2023.2.2,59.927673889030366,
,,,,,,,,369.17723134500557,2,faces-34.jpg,,KN,1,vpnl,2023-11-15_20h39.46.667,shortbabyloc,2023.2.2,59.927673889030366,
,,,,,,,,369.6772251930088,2,faces-35.jpg,,KN,1,vpnl,2023-11-15_20h39.46.667,shortbabyloc,2023.2.2,59.927673889030366,
,,,,,,,,370.17722783700447,2,faces-36.jpg,,KN,1,vpnl,2023-11-15_20h39.46.667,shortbabyloc,2023.2.2,59.927673889030366,
,,,,,,,,370.67710360600904,2,faces-37.jpg,,KN,1,vpnl,2023-11-15_20h39.46.667,shortbabyloc,2023.2.2,59.927673889030366,
,,,,,,,,371.17731774999993,2,faces-38.jpg,,KN,1,vpnl,2023-11-15_20h39.46.667,shortbabyloc,2023.2.2,59.927673889030366,
,,,,,,,,371.67662376200315,2,faces-39.jpg,,KN,1,vpnl,2023-11-15_20h39.46.667,shortbabyloc,2023.2.2,59.927673889030366,
,,,,,,,,372.1769761839969,2,faces-40.jpg,,KN,1,vpnl,2023-11-15_20h39.46.667,shortbabyloc,2023.2.2,59.927673889030366,
,,,,,,,,372.6773372930038,3,scenes-33.jpg,,KN,1,vpnl,2023-11-15_20h39.46.667,shortbabyloc,2023.2.2,59.927673889030366,
,,,,,,,,373.1772707540076,3,scenes-34.jpg,,KN,1,vpnl,2023-11-15_20h39.46.667,shortbabyloc,2023.2.2,59.927673889030366,
,,,,,,,,373.67712200600363,3,scenes-35.jpg,,KN,1,vpnl,2023-11-15_20h39.46.667,shortbabyloc,2023.2.2,59.927673889030366,
,,,,,,,,374.1770136280102,3,scenes-36.jpg,,KN,1,vpnl,2023-11-15_20h39.46.667,shortbabyloc,2023.2.2,59.927673889030366,
,,,,,,,,374.6765374020033,3,scenes-37.jpg,,KN,1,vpnl,2023-11-15_20h39.46.667,shortbabyloc,2023.2.2,59.927673889030366,
,,,,,,,,375.177421712011,3,scenes-38.jpg,,KN,1,vpnl,2023-11-15_20h39.46.667,shortbabyloc,2023.2.2,59.927673889030366,
,,,,,,,,375.67725977199734,3,scenes-39.jpg,,KN,1,vpnl,2023-11-15_20h39.46.667,shortbabyloc,2023.2.2,59.927673889030366,
,,,,,,,,376.17706014800933,3,scenes-40.jpg,,KN,1,vpnl,2023-11-15_20h39.46.667,shortbabyloc,2023.2.2,59.927673889030366,
,,,,,,,,376.67707176601107,4,blank-41.jpg,,KN,1,vpnl,2023-11-15_20h39.46.667,shortbabyloc,2023.2.2,59.927673889030366,
,,,,,,,,377.1769989949971,4,blank-42.jpg,,KN,1,vpnl,2023-11-15_20h39.46.667,shortbabyloc,2023.2.2,59.927673889030366,
,,,,,,,,377.67662996900617,4,blank-43.jpg,,KN,1,vpnl,2023-11-15_20h39.46.667,shortbabyloc,2023.2.2,59.927673889030366,
,,,,,,,,378.17702195800666,4,blank-44.jpg,,KN,1,vpnl,2023-11-15_20h39.46.667,shortbabyloc,2023.2.2,59.927673889030366,
,,,,,,,,378.67708418700204,4,blank-45.jpg,,KN,1,vpnl,2023-11-15_20h39.46.667,shortbabyloc,2023.2.2,59.927673889030366,
,,,,,,,,379.17772415200307,4,blank-46.jpg,,KN,1,vpnl,2023-11-15_20h39.46.667,shortbabyloc,2023.2.2,59.927673889030366,
,,,,,,,,379.67755292700895,4,blank-47.jpg,,KN,1,vpnl,2023-11-15_20h39.46.667,shortbabyloc,2023.2.2,59.927673889030366,
,,,,,,,,380.1771479200106,4,blank-48.jpg,,KN,1,vpnl,2023-11-15_20h39.46.667,shortbabyloc,2023.2.2,59.927673889030366,
,,,,,,,,380.67640970100183,5,hands-33.jpg,,KN,1,vpnl,2023-11-15_20h39.46.667,shortbabyloc,2023.2.2,59.927673889030366,
,,,,,,,,381.1773490070045,5,hands-34.jpg,,KN,1,vpnl,2023-11-15_20h39.46.667,shortbabyloc,2023.2.2,59.927673889030366,
,,,,,,,,381.67741683700297,5,hands-35.jpg,,KN,1,vpnl,2023-11-15_20h39.46.667,shortbabyloc,2023.2.2,59.927673889030366,
,,,,,,,,382.17733354899974,5,hands-36.jpg,,KN,1,vpnl,2023-11-15_20h39.46.667,shortbabyloc,2023.2.2,59.927673889030366,
,,,,,,,,382.6769881509972,5,hands-37.jpg,,KN,1,vpnl,2023-11-15_20h39.46.667,shortbabyloc,2023.2.2,59.927673889030366,
,,,,,,,,383.1768251090107,5,hands-38.jpg,,KN,1,vpnl,2023-11-15_20h39.46.667,shortbabyloc,2023.2.2,59.927673889030366,
,,,,,,,,383.67632752200007,5,hands-39.jpg,,KN,1,vpnl,2023-11-15_20h39.46.667,shortbabyloc,2023.2.2,59.927673889030366,
,,,,,,,,384.17720825900324,5,hands-40.jpg,,KN,1,vpnl,2023-11-15_20h39.46.667,shortbabyloc,2023.2.2,59.927673889030366,
,,,,,,,,384.6771937930025,6,cars-33.jpg,,KN,1,vpnl,2023-11-15_20h39.46.667,shortbabyloc,2023.2.2,59.927673889030366,
,,,,,,,,385.177526836007,6,cars-34.jpg,,KN,1,vpnl,2023-11-15_20h39.46.667,shortbabyloc,2023.2.2,59.927673889030366,
,,,,,,,,385.677549732005,6,cars-35.jpg,,KN,1,vpnl,2023-11-15_20h39.46.667,shortbabyloc,2023.2.2,59.927673889030366,
,,,,,,,,386.17713155099773,6,cars-36.jpg,,KN,1,vpnl,2023-11-15_20h39.46.667,shortbabyloc,2023.2.2,59.927673889030366,
,,,,,,,,386.6763258980063,6,cars-37.jpg,,KN,1,vpnl,2023-11-15_20h39.46.667,shortbabyloc,2023.2.2,59.927673889030366,
,,,,,,,,387.1770163960027,6,cars-38.jpg,,KN,1,vpnl,2023-11-15_20h39.46.667,shortbabyloc,2023.2.2,59.927673889030366,
,,,,,,,,387.67695839000226,6,cars-39.jpg,,KN,1,vpnl,2023-11-15_20h39.46.667,shortbabyloc,2023.2.2,59.927673889030366,
,,,,,,,,388.1765942960046,6,cars-40.jpg,,KN,1,vpnl,2023-11-15_20h39.46.667,shortbabyloc,2023.2.2,59.927673889030366,
,,,,,,,,388.6771527079982,7,scenes-41.jpg,,KN,1,vpnl,2023-11-15_20h39.46.667,shortbabyloc,2023.2.2,59.927673889030366,
,,,,,,,,389.1770946250035,7,scenes-42.jpg,,KN,1,vpnl,2023-11-15_20h39.46.667,shortbabyloc,2023.2.2,59.927673889030366,
,,,,,,,,389.6762061650079,7,scenes-43.jpg,,KN,1,vpnl,2023-11-15_20h39.46.667,shortbabyloc,2023.2.2,59.927673889030366,
,,,,,,,,390.17687862500316,7,scenes-44.jpg,,KN,1,vpnl,2023-11-15_20h39.46.667,shortbabyloc,2023.2.2,59.927673889030366,
,,,,,,,,390.67706244799774,7,scenes-45.jpg,,KN,1,vpnl,2023-11-15_20h39.46.667,shortbabyloc,2023.2.2,59.927673889030366,
,,,,,,,,391.177300602998,7,scenes-46.jpg,,KN,1,vpnl,2023-11-15_20h39.46.667,shortbabyloc,2023.2.2,59.927673889030366,
,,,,,,,,391.6769662459992,7,scenes-47.jpg,,KN,1,vpnl,2023-11-15_20h39.46.667,shortbabyloc,2023.2.2,59.927673889030366,
,,,,,,,,392.1769800480106,7,scenes-48.jpg,,KN,1,vpnl,2023-11-15_20h39.46.667,shortbabyloc,2023.2.2,59.927673889030366,
,,,,,,,,392.6761260589992,8,hands-41.jpg,,KN,1,vpnl,2023-11-15_20h39.46.667,shortbabyloc,2023.2.2,59.927673889030366,
,,,,,,,,393.17725455500477,8,hands-42.jpg,,KN,1,vpnl,2023-11-15_20h39.46.667,shortbabyloc,2023.2.2,59.927673889030366,
,,,,,,,,393.67663338800776,8,hands-43.jpg,,KN,1,vpnl,2023-11-15_20h39.46.667,shortbabyloc,2023.2.2,59.927673889030366,
,,,,,,,,394.1773914170044,8,hands-44.jpg,,KN,1,vpnl,2023-11-15_20h39.46.667,shortbabyloc,2023.2.2,59.927673889030366,
,,,,,,,,394.6767902819993,8,hands-45.jpg,,KN,1,vpnl,2023-11-15_20h39.46.667,shortbabyloc,2023.2.2,59.927673889030366,
,,,,,,,,395.1767785940028,8,hands-46.jpg,,KN,1,vpnl,2023-11-15_20h39.46.667,shortbabyloc,2023.2.2,59.927673889030366,
,,,,,,,,395.6761875250086,8,hands-47.jpg,,KN,1,vpnl,2023-11-15_20h39.46.667,shortbabyloc,2023.2.2,59.927673889030366,
,,,,,,,,396.17716178900446,8,hands-48.jpg,,KN,1,vpnl,2023-11-15_20h39.46.667,shortbabyloc,2023.2.2,59.927673889030366,
,,,,,,,,396.6767371669994,9,blank-49.jpg,,KN,1,vpnl,2023-11-15_20h39.46.667,shortbabyloc,2023.2.2,59.927673889030366,
,,,,,,,,397.16219735200866,9,blank-50.jpg,397.65988130700134,KN,1,vpnl,2023-11-15_20h39.46.667,shortbabyloc,2023.2.2,59.927673889030366,
,,,,,,,,397.65988130700134,9,blank-51.jpg,398.16260840500763,KN,1,vpnl,2023-11-15_20h39.46.667,shortbabyloc,2023.2.2,59.927673889030366,
,,,,,,,,398.16260840500763,9,blank-52.jpg,,KN,1,vpnl,2023-11-15_20h39.46.667,shortbabyloc,2023.2.2,59.927673889030366,
,,,,,,,,398.67686584900366,9,blank-53.jpg,,KN,1,vpnl,2023-11-15_20h39.46.667,shortbabyloc,2023.2.2,59.927673889030366,
,,,,,,,,399.1768114900042,9,blank-54.jpg,,KN,1,vpnl,2023-11-15_20h39.46.667,shortbabyloc,2023.2.2,59.927673889030366,
,,,,,,,,399.6769008410047,9,blank-55.jpg,,KN,1,vpnl,2023-11-15_20h39.46.667,shortbabyloc,2023.2.2,59.927673889030366,
,,,,,,,,400.1771961050108,9,blank-56.jpg,,KN,1,vpnl,2023-11-15_20h39.46.667,shortbabyloc,2023.2.2,59.927673889030366,
,,,,,,,,400.6760347590025,10,cars-41.jpg,,KN,1,vpnl,2023-11-15_20h39.46.667,shortbabyloc,2023.2.2,59.927673889030366,
,,,,,,,,401.17659844200534,10,cars-42.jpg,,KN,1,vpnl,2023-11-15_20h39.46.667,shortbabyloc,2023.2.2,59.927673889030366,
,,,,,,,,401.6767322950036,10,cars-43.jpg,,KN,1,vpnl,2023-11-15_20h39.46.667,shortbabyloc,2023.2.2,59.927673889030366,
,,,,,,,,402.1790154580085,10,cars-44.jpg,,KN,1,vpnl,2023-11-15_20h39.46.667,shortbabyloc,2023.2.2,59.927673889030366,
,,,,,,,,402.6766483870015,10,cars-45.jpg,,KN,1,vpnl,2023-11-15_20h39.46.667,shortbabyloc,2023.2.2,59.927673889030366,
,,,,,,,,403.1792278310022,10,cars-46.jpg,,KN,1,vpnl,2023-11-15_20h39.46.667,shortbabyloc,2023.2.2,59.927673889030366,
,,,,,,,,403.6761168130033,10,cars-47.jpg,,KN,1,vpnl,2023-11-15_20h39.46.667,shortbabyloc,2023.2.2,59.927673889030366,
,,,,,,,,404.17694389700773,10,cars-48.jpg,,KN,1,vpnl,2023-11-15_20h39.46.667,shortbabyloc,2023.2.2,59.927673889030366,
,,,,,,,,404.67602628300665,11,faces-41.jpg,,KN,1,vpnl,2023-11-15_20h39.46.667,shortbabyloc,2023.2.2,59.927673889030366,
,,,,,,,,405.176490990998,11,faces-42.jpg,,KN,1,vpnl,2023-11-15_20h39.46.667,shortbabyloc,2023.2.2,59.927673889030366,
,,,,,,,,405.6759479809989,11,faces-43.jpg,,KN,1,vpnl,2023-11-15_20h39.46.667,shortbabyloc,2023.2.2,59.927673889030366,
,,,,,,,,406.17710135900415,11,faces-44.jpg,,KN,1,vpnl,2023-11-15_20h39.46.667,shortbabyloc,2023.2.2,59.927673889030366,
,,,,,,,,406.6761397180089,11,faces-45.jpg,,KN,1,vpnl,2023-11-15_20h39.46.667,shortbabyloc,2023.2.2,59.927673889030366,
,,,,,,,,407.17655332700815,11,faces-46.jpg,,KN,1,vpnl,2023-11-15_20h39.46.667,shortbabyloc,2023.2.2,59.927673889030366,
,,,,,,,,407.6759913380083,11,faces-47.jpg,,KN,1,vpnl,2023-11-15_20h39.46.667,shortbabyloc,2023.2.2,59.927673889030366,
,,,,,,,,408.17701258001034,11,faces-48.jpg,,KN,1,vpnl,2023-11-15_20h39.46.667,shortbabyloc,2023.2.2,59.927673889030366,
,,,,,,,,408.67604116300936,12,blank-57.jpg,,KN,1,vpnl,2023-11-15_20h39.46.667,shortbabyloc,2023.2.2,59.927673889030366,
,,,,,,,,409.1766440670035,12,blank-58.jpg,,KN,1,vpnl,2023-11-15_20h39.46.667,shortbabyloc,2023.2.2,59.927673889030366,
,,,,,,,,409.6759328600019,12,blank-59.jpg,,KN,1,vpnl,2023-11-15_20h39.46.667,shortbabyloc,2023.2.2,59.927673889030366,
,,,,,,,,410.1766981929977,12,blank-60.jpg,,KN,1,vpnl,2023-11-15_20h39.46.667,shortbabyloc,2023.2.2,59.927673889030366,
,,,,,,,,410.6760711350071,12,blank-61.jpg,,KN,1,vpnl,2023-11-15_20h39.46.667,shortbabyloc,2023.2.2,59.927673889030366,
,,,,,,,,411.1764985490008,12,blank-62.jpg,,KN,1,vpnl,2023-11-15_20h39.46.667,shortbabyloc,2023.2.2,59.927673889030366,
,,,,,,,,411.6760054810002,12,blank-63.jpg,,KN,1,vpnl,2023-11-15_20h39.46.667,shortbabyloc,2023.2.2,59.927673889030366,
,,,,,,,,412.1765931120026,12,blank-64.jpg,,KN,1,vpnl,2023-11-15_20h39.46.667,shortbabyloc,2023.2.2,59.927673889030366,
,,,,,,,,412.6760017970082,13,scenes-49.jpg,,KN,1,vpnl,2023-11-15_20h39.46.667,shortbabyloc,2023.2.2,59.927673889030366,
,,,,,,,,413.17583473700506,13,scenes-50.jpg,,KN,1,vpnl,2023-11-15_20h39.46.667,shortbabyloc,2023.2.2,59.927673889030366,
,,,,,,,,413.6759344750026,13,scenes-51.jpg,,KN,1,vpnl,2023-11-15_20h39.46.667,shortbabyloc,2023.2.2,59.927673889030366,
,,,,,,,,414.1766391310084,13,scenes-52.jpg,,KN,1,vpnl,2023-11-15_20h39.46.667,shortbabyloc,2023.2.2,59.927673889030366,
,,,,,,,,414.67601668099815,13,scenes-53.jpg,,KN,1,vpnl,2023-11-15_20h39.46.667,shortbabyloc,2023.2.2,59.927673889030366,
,,,,,,,,415.17697986100393,13,scenes-54.jpg,,KN,1,vpnl,2023-11-15_20h39.46.667,shortbabyloc,2023.2.2,59.927673889030366,
,,,,,,,,415.67582832599874,13,scenes-55.jpg,,KN,1,vpnl,2023-11-15_20h39.46.667,shortbabyloc,2023.2.2,59.927673889030366,
,,,,,,,,416.1765973090078,13,scenes-56.jpg,,KN,1,vpnl,2023-11-15_20h39.46.667,shortbabyloc,2023.2.2,59.927673889030366,
,,,,,,,,416.6759116750036,14,faces-49.jpg,,KN,1,vpnl,2023-11-15_20h39.46.667,shortbabyloc,2023.2.2,59.927673889030366,
,,,,,,,,417.1763944780105,14,faces-50.jpg,,KN,1,vpnl,2023-11-15_20h39.46.667,shortbabyloc,2023.2.2,59.927673889030366,
,,,,,,,,417.6759229570016,14,faces-51.jpg,,KN,1,vpnl,2023-11-15_20h39.46.667,shortbabyloc,2023.2.2,59.927673889030366,
,,,,,,,,418.1766071400052,14,faces-52.jpg,,KN,1,vpnl,2023-11-15_20h39.46.667,shortbabyloc,2023.2.2,59.927673889030366,
,,,,,,,,418.67616745000123,14,faces-53.jpg,,KN,1,vpnl,2023-11-15_20h39.46.667,shortbabyloc,2023.2.2,59.927673889030366,
,,,,,,,,419.1769136100047,14,faces-54.jpg,,KN,1,vpnl,2023-11-15_20h39.46.667,shortbabyloc,2023.2.2,59.927673889030366,
,,,,,,,,419.67596995799977,14,faces-55.jpg,,KN,1,vpnl,2023-11-15_20h39.46.667,shortbabyloc,2023.2.2,59.927673889030366,
,,,,,,,,420.1766554850037,14,faces-56.jpg,,KN,1,vpnl,2023-11-15_20h39.46.667,shortbabyloc,2023.2.2,59.927673889030366,
,,,,,,,,420.6759674180066,15,cars-49.jpg,,KN,1,vpnl,2023-11-15_20h39.46.667,shortbabyloc,2023.2.2,59.927673889030366,
,,,,,,,,421.17640919399855,15,cars-50.jpg,,KN,1,vpnl,2023-11-15_20h39.46.667,shortbabyloc,2023.2.2,59.927673889030366,
,,,,,,,,421.6762239939999,15,cars-51.jpg,,KN,1,vpnl,2023-11-15_20h39.46.667,shortbabyloc,2023.2.2,59.927673889030366,
,,,,,,,,422.1761241310014,15,cars-52.jpg,,KN,1,vpnl,2023-11-15_20h39.46.667,shortbabyloc,2023.2.2,59.927673889030366,
,,,,,,,,422.6760821150092,15,cars-53.jpg,,KN,1,vpnl,2023-11-15_20h39.46.667,shortbabyloc,2023.2.2,59.927673889030366,
,,,,,,,,423.1766841510107,15,cars-54.jpg,,KN,1,vpnl,2023-11-15_20h39.46.667,shortbabyloc,2023.2.2,59.927673889030366,
,,,,,,,,423.67669552699954,15,cars-55.jpg,,KN,1,vpnl,2023-11-15_20h39.46.667,shortbabyloc,2023.2.2,59.927673889030366,
,,,,,,,,424.17670663401077,15,cars-56.jpg,,KN,1,vpnl,2023-11-15_20h39.46.667,shortbabyloc,2023.2.2,59.927673889030366,
,,,,,,,,424.67640997000854,16,hands-49.jpg,,KN,1,vpnl,2023-11-15_20h39.46.667,shortbabyloc,2023.2.2,59.927673889030366,
,,,,,,,,425.17650434799725,16,hands-50.jpg,,KN,1,vpnl,2023-11-15_20h39.46.667,shortbabyloc,2023.2.2,59.927673889030366,
,,,,,,,,425.6762780680001,16,hands-51.jpg,,KN,1,vpnl,2023-11-15_20h39.46.667,shortbabyloc,2023.2.2,59.927673889030366,
,,,,,,,,426.1764538280113,16,hands-52.jpg,,KN,1,vpnl,2023-11-15_20h39.46.667,shortbabyloc,2023.2.2,59.927673889030366,
,,,,,,,,426.6768648950092,16,hands-53.jpg,,KN,1,vpnl,2023-11-15_20h39.46.667,shortbabyloc,2023.2.2,59.927673889030366,
,,,,,,,,427.1755591399997,16,hands-54.jpg,,KN,1,vpnl,2023-11-15_20h39.46.667,shortbabyloc,2023.2.2,59.927673889030366,
,,,,,,,,427.67604103000485,16,hands-55.jpg,,KN,1,vpnl,2023-11-15_20h39.46.667,shortbabyloc,2023.2.2,59.927673889030366,
,,,,,,,,428.17680778900103,16,hands-56.jpg,,KN,1,vpnl,2023-11-15_20h39.46.667,shortbabyloc,2023.2.2,59.927673889030366,
,,,,,,,,428.6761359430093,17,faces-57.jpg,,KN,1,vpnl,2023-11-15_20h39.46.667,shortbabyloc,2023.2.2,59.927673889030366,
,,,,,,,,429.17654204599967,17,faces-58.jpg,,KN,1,vpnl,2023-11-15_20h39.46.667,shortbabyloc,2023.2.2,59.927673889030366,
,,,,,,,,429.6763829940028,17,faces-59.jpg,,KN,1,vpnl,2023-11-15_20h39.46.667,shortbabyloc,2023.2.2,59.927673889030366,
,,,,,,,,430.18101508800464,17,faces-60.jpg,,KN,1,vpnl,2023-11-15_20h39.46.667,shortbabyloc,2023.2.2,59.927673889030366,
,,,,,,,,430.6754921620013,17,faces-61.jpg,,KN,1,vpnl,2023-11-15_20h39.46.667,shortbabyloc,2023.2.2,59.927673889030366,
,,,,,,,,431.1766921160015,17,faces-62.jpg,,KN,1,vpnl,2023-11-15_20h39.46.667,shortbabyloc,2023.2.2,59.927673889030366,
,,,,,,,,431.6758201060002,17,faces-63.jpg,,KN,1,vpnl,2023-11-15_20h39.46.667,shortbabyloc,2023.2.2,59.927673889030366,
,,,,,,,,432.17645324600744,17,faces-64.jpg,,KN,1,vpnl,2023-11-15_20h39.46.667,shortbabyloc,2023.2.2,59.927673889030366,
,,,,,,,,432.6768730400072,18,blank-65.jpg,,KN,1,vpnl,2023-11-15_20h39.46.667,shortbabyloc,2023.2.2,59.927673889030366,
,,,,,,,,433.1761983230099,18,blank-66.jpg,,KN,1,vpnl,2023-11-15_20h39.46.667,shortbabyloc,2023.2.2,59.927673889030366,
,,,,,,,,433.6756372789969,18,blank-67.jpg,,KN,1,vpnl,2023-11-15_20h39.46.667,shortbabyloc,2023.2.2,59.927673889030366,
,,,,,,,,434.17689209499804,18,blank-68.jpg,,KN,1,vpnl,2023-11-15_20h39.46.667,shortbabyloc,2023.2.2,59.927673889030366,
,,,,,,,,434.67532468700665,18,blank-69.jpg,,KN,1,vpnl,2023-11-15_20h39.46.667,shortbabyloc,2023.2.2,59.927673889030366,
,,,,,,,,435.17458859900944,18,blank-70.jpg,,KN,1,vpnl,2023-11-15_20h39.46.667,shortbabyloc,2023.2.2,59.927673889030366,
,,,,,,,,435.6763131129992,18,blank-71.jpg,,KN,1,vpnl,2023-11-15_20h39.46.667,shortbabyloc,2023.2.2,59.927673889030366,
,,,,,,,,436.17612080099934,18,blank-72.jpg,,KN,1,vpnl,2023-11-15_20h39.46.667,shortbabyloc,2023.2.2,59.927673889030366,
,,,,,,,,436.67573163600173,19,cars-57.jpg,,KN,1,vpnl,2023-11-15_20h39.46.667,shortbabyloc,2023.2.2,59.927673889030366,
,,,,,,,,437.175553441004,19,cars-58.jpg,,KN,1,vpnl,2023-11-15_20h39.46.667,shortbabyloc,2023.2.2,59.927673889030366,
,,,,,,,,437.676683704005,19,cars-59.jpg,,KN,1,vpnl,2023-11-15_20h39.46.667,shortbabyloc,2023.2.2,59.927673889030366,
,,,,,,,,438.1759524040099,19,cars-60.jpg,,KN,1,vpnl,2023-11-15_20h39.46.667,shortbabyloc,2023.2.2,59.927673889030366,
,,,,,,,,438.6755550719972,19,cars-61.jpg,,KN,1,vpnl,2023-11-15_20h39.46.667,shortbabyloc,2023.2.2,59.927673889030366,
,,,,,,,,439.17607830499765,19,cars-62.jpg,,KN,1,vpnl,2023-11-15_20h39.46.667,shortbabyloc,2023.2.2,59.927673889030366,
,,,,,,,,439.67648334200203,19,cars-63.jpg,,KN,1,vpnl,2023-11-15_20h39.46.667,shortbabyloc,2023.2.2,59.927673889030366,
,,,,,,,,440.1763685240003,19,cars-64.jpg,,KN,1,vpnl,2023-11-15_20h39.46.667,shortbabyloc,2023.2.2,59.927673889030366,
,,,,,,,,440.6750901339983,20,hands-57.jpg,,KN,1,vpnl,2023-11-15_20h39.46.667,shortbabyloc,2023.2.2,59.927673889030366,
,,,,,,,,441.1756516590103,20,hands-58.jpg,,KN,1,vpnl,2023-11-15_20h39.46.667,shortbabyloc,2023.2.2,59.927673889030366,
,,,,,,,,441.6766697330022,20,hands-59.jpg,,KN,1,vpnl,2023-11-15_20h39.46.667,shortbabyloc,2023.2.2,59.927673889030366,
,,,,,,,,442.1762625219999,20,hands-60.jpg,,KN,1,vpnl,2023-11-15_20h39.46.667,shortbabyloc,2023.2.2,59.927673889030366,
,,,,,,,,442.67549348500324,20,hands-61.jpg,,KN,1,vpnl,2023-11-15_20h39.46.667,shortbabyloc,2023.2.2,59.927673889030366,
,,,,,,,,443.176649645,20,hands-62.jpg,,KN,1,vpnl,2023-11-15_20h39.46.667,shortbabyloc,2023.2.2,59.927673889030366,
,,,,,,,,443.6763827840041,20,hands-63.jpg,,KN,1,vpnl,2023-11-15_20h39.46.667,shortbabyloc,2023.2.2,59.927673889030366,
,,,,,,,,444.1759144940006,20,hands-64.jpg,,KN,1,vpnl,2023-11-15_20h39.46.667,shortbabyloc,2023.2.2,59.927673889030366,
,,,,,,,,444.6754285390052,21,scenes-57.jpg,,KN,1,vpnl,2023-11-15_20h39.46.667,shortbabyloc,2023.2.2,59.927673889030366,
,,,,,,,,445.1769481250085,21,scenes-58.jpg,,KN,1,vpnl,2023-11-15_20h39.46.667,shortbabyloc,2023.2.2,59.927673889030366,
,,,,,,,,445.6761489960045,21,scenes-59.jpg,,KN,1,vpnl,2023-11-15_20h39.46.667,shortbabyloc,2023.2.2,59.927673889030366,
,,,,,,,,446.1754726030049,21,scenes-60.jpg,,KN,1,vpnl,2023-11-15_20h39.46.667,shortbabyloc,2023.2.2,59.927673889030366,
,,,,,,,,446.67584804100625,21,scenes-61.jpg,,KN,1,vpnl,2023-11-15_20h39.46.667,shortbabyloc,2023.2.2,59.927673889030366,
,,,,,,,,447.1756300870038,21,scenes-62.jpg,,KN,1,vpnl,2023-11-15_20h39.46.667,shortbabyloc,2023.2.2,59.927673889030366,
,,,,,,,,447.6764935550018,21,scenes-63.jpg,,KN,1,vpnl,2023-11-15_20h39.46.667,shortbabyloc,2023.2.2,59.927673889030366,
,,,,,,,,448.1764428940078,21,scenes-64.jpg,,KN,1,vpnl,2023-11-15_20h39.46.667,shortbabyloc,2023.2.2,59.927673889030366,
,,,,,,,,448.67592248100846,22,blank-73.jpg,,KN,1,vpnl,2023-11-15_20h39.46.667,shortbabyloc,2023.2.2,59.927673889030366,
,,,,,,,,449.17646652500844,22,blank-74.jpg,,KN,1,vpnl,2023-11-15_20h39.46.667,shortbabyloc,2023.2.2,59.927673889030366,
,,,,,,,,449.67686988700007,22,blank-75.jpg,,KN,1,vpnl,2023-11-15_20h39.46.667,shortbabyloc,2023.2.2,59.927673889030366,
,,,,,,,,450.1763863040105,22,blank-76.jpg,,KN,1,vpnl,2023-11-15_20h39.46.667,shortbabyloc,2023.2.2,59.927673889030366,
,,,,,,,,450.67558251200535,22,blank-77.jpg,,KN,1,vpnl,2023-11-15_20h39.46.667,shortbabyloc,2023.2.2,59.927673889030366,
,,,,,,,,451.1756890270044,22,blank-78.jpg,,KN,1,vpnl,2023-11-15_20h39.46.667,shortbabyloc,2023.2.2,59.927673889030366,
,,,,,,,,451.67658057800145,22,blank-79.jpg,,KN,1,vpnl,2023-11-15_20h39.46.667,shortbabyloc,2023.2.2,59.927673889030366,
,,,,,,,,452.1759769360069,22,blank-80.jpg,,KN,1,vpnl,2023-11-15_20h39.46.667,shortbabyloc,2023.2.2,59.927673889030366,
