thisRow.t,notes,waiting_for_trigger_text.started,trigger.started,trigger.keys,trigger.rt,countdown.started,trial.stopped,stimuli.started,condition,stim_name,participant,run,user,date,expName,psychopyVersion,frameRate,
,,46.736742824999965,46.736742824999965,t,141.75120430300012,,,,,,KN,1,vpnl,2023-11-15_20h39.46.667,shortbabyloc,2023.2.2,59.927673889030366,
,,,,,,188.53322698800184,147.792841167,194.53378337300092,1,blank-1.jpg,KN,1,vpnl,2023-11-15_20h39.46.667,shortbabyloc,2023.2.2,59.927673889030366,
,,,,,,,,195.0311210189975,1,blank-2.jpg,KN,1,vpnl,2023-11-15_20h39.46.667,shortbabyloc,2023.2.2,59.927673889030366,
,,,,,,,,195.53082047500357,1,blank-3.jpg,KN,1,vpnl,2023-11-15_20h39.46.667,shortbabyloc,2023.2.2,59.927673889030366,
,,,,,,,,196.0309985930071,1,blank-4.jpg,KN,1,vpnl,2023-11-15_20h39.46.667,shortbabyloc,2023.2.2,59.927673889030366,
,,,,,,,,196.53090705099748,1,blank-5.jpg,KN,1,vpnl,2023-11-15_20h39.46.667,shortbabyloc,2023.2.2,59.927673889030366,
,,,,,,,,197.0335178719979,1,blank-6.jpg,KN,1,vpnl,2023-11-15_20h39.46.667,shortbabyloc,2023.2.2,59.927673889030366,
,,,,,,,,197.530949196007,1,blank-7.jpg,KN,1,vpnl,2023-11-15_20h39.46.667,shortbabyloc,2023.2.2,59.927673889030366,
,,,,,,,,198.03108462200908,1,blank-8.jpg,KN,1,vpnl,2023-11-15_20h39.46.667,shortbabyloc,2023.2.2,59.927673889030366,
,,,,,,,,198.53093871301098,2,cars-1.jpg,KN,1,vpnl,2023-11-15_20h39.46.667,shortbabyloc,2023.2.2,59.927673889030366,
,,,,,,,,199.0307724459999,2,cars-2.jpg,KN,1,vpnl,2023-11-15_20h39.46.667,shortbabyloc,2023.2.2,59.927673889030366,
,,,,,,,,199.53073774900986,2,cars-3.jpg,KN,1,vpnl,2023-11-15_20h39.46.667,shortbabyloc,2023.2.2,59.927673889030366,
,,,,,,,,200.03062815500016,2,cars-4.jpg,KN,1,vpnl,2023-11-15_20h39.46.667,shortbabyloc,2023.2.2,59.927673889030366,
,,,,,,,,200.5308261559985,2,cars-5.jpg,KN,1,vpnl,2023-11-15_20h39.46.667,shortbabyloc,2023.2.2,59.927673889030366,
,,,,,,,,201.0301307960035,2,cars-6.jpg,KN,1,vpnl,2023-11-15_20h39.46.667,shortbabyloc,2023.2.2,59.927673889030366,
,,,,,,,,201.5306501060113,2,cars-7.jpg,KN,1,vpnl,2023-11-15_20h39.46.667,shortbabyloc,2023.2.2,59.927673889030366,
,,,,,,,,202.03099967700837,2,cars-8.jpg,KN,1,vpnl,2023-11-15_20h39.46.667,shortbabyloc,2023.2.2,59.927673889030366,
,,,,,,,,202.53066075700917,3,faces-1.jpg,KN,1,vpnl,2023-11-15_20h39.46.667,shortbabyloc,2023.2.2,59.927673889030366,
,,,,,,,,203.0307628169976,3,faces-2.jpg,KN,1,vpnl,2023-11-15_20h39.46.667,shortbabyloc,2023.2.2,59.927673889030366,
,,,,,,,,203.5306969910016,3,faces-3.jpg,KN,1,vpnl,2023-11-15_20h39.46.667,shortbabyloc,2023.2.2,59.927673889030366,
,,,,,,,,204.03100145800272,3,faces-4.jpg,KN,1,vpnl,2023-11-15_20h39.46.667,shortbabyloc,2023.2.2,59.927673889030366,
,,,,,,,,204.53103822900448,3,faces-5.jpg,KN,1,vpnl,2023-11-15_20h39.46.667,shortbabyloc,2023.2.2,59.927673889030366,
,,,,,,,,205.03071307799837,3,faces-6.jpg,KN,1,vpnl,2023-11-15_20h39.46.667,shortbabyloc,2023.2.2,59.927673889030366,
,,,,,,,,205.53075057700335,3,faces-7.jpg,KN,1,vpnl,2023-11-15_20h39.46.667,shortbabyloc,2023.2.2,59.927673889030366,
,,,,,,,,206.03086471500865,3,faces-8.jpg,KN,1,vpnl,2023-11-15_20h39.46.667,shortbabyloc,2023.2.2,59.927673889030366,
,,,,,,,,206.53051503800089,4,scenes-1.jpg,KN,1,vpnl,2023-11-15_20h39.46.667,shortbabyloc,2023.2.2,59.927673889030366,
,,,,,,,,207.03086816699943,4,scenes-2.jpg,KN,1,vpnl,2023-11-15_20h39.46.667,shortbabyloc,2023.2.2,59.927673889030366,
,,,,,,,,207.53027346100134,4,scenes-3.jpg,KN,1,vpnl,2023-11-15_20h39.46.667,shortbabyloc,2023.2.2,59.927673889030366,
,,,,,,,,208.0309064949979,4,scenes-4.jpg,KN,1,vpnl,2023-11-15_20h39.46.667,shortbabyloc,2023.2.2,59.927673889030366,
,,,,,,,,208.5309029580094,4,scenes-5.jpg,KN,1,vpnl,2023-11-15_20h39.46.667,shortbabyloc,2023.2.2,59.927673889030366,
,,,,,,,,209.0303218820045,4,scenes-6.jpg,KN,1,vpnl,2023-11-15_20h39.46.667,shortbabyloc,2023.2.2,59.927673889030366,
,,,,,,,,209.53090196500125,4,scenes-7.jpg,KN,1,vpnl,2023-11-15_20h39.46.667,shortbabyloc,2023.2.2,59.927673889030366,
,,,,,,,,210.0307750290085,4,scenes-8.jpg,KN,1,vpnl,2023-11-15_20h39.46.667,shortbabyloc,2023.2.2,59.927673889030366,
,,,,,,,,210.530631533009,5,hands-1.jpg,KN,1,vpnl,2023-11-15_20h39.46.667,shortbabyloc,2023.2.2,59.927673889030366,
,,,,,,,,211.0310403659969,5,hands-2.jpg,KN,1,vpnl,2023-11-15_20h39.46.667,shortbabyloc,2023.2.2,59.927673889030366,
,,,,,,,,211.53074694500538,5,hands-3.jpg,KN,1,vpnl,2023-11-15_20h39.46.667,shortbabyloc,2023.2.2,59.927673889030366,
,,,,,,,,212.03074256400578,5,hands-4.jpg,KN,1,vpnl,2023-11-15_20h39.46.667,shortbabyloc,2023.2.2,59.927673889030366,
,,,,,,,,212.5307692570059,5,hands-5.jpg,KN,1,vpnl,2023-11-15_20h39.46.667,shortbabyloc,2023.2.2,59.927673889030366,
,,,,,,,,213.0310019000026,5,hands-6.jpg,KN,1,vpnl,2023-11-15_20h39.46.667,shortbabyloc,2023.2.2,59.927673889030366,
,,,,,,,,213.53094611200504,5,hands-7.jpg,KN,1,vpnl,2023-11-15_20h39.46.667,shortbabyloc,2023.2.2,59.927673889030366,
,,,,,,,,214.03035270000692,5,hands-8.jpg,KN,1,vpnl,2023-11-15_20h39.46.667,shortbabyloc,2023.2.2,59.927673889030366,
,,,,,,,,214.53129716700641,6,blank-9.jpg,KN,1,vpnl,2023-11-15_20h39.46.667,shortbabyloc,2023.2.2,59.927673889030366,
,,,,,,,,215.02150845600409,6,blank-10.jpg,KN,1,vpnl,2023-11-15_20h39.46.667,shortbabyloc,2023.2.2,59.927673889030366,
,,,,,,,,215.53372882399708,6,blank-11.jpg,KN,1,vpnl,2023-11-15_20h39.46.667,shortbabyloc,2023.2.2,59.927673889030366,
,,,,,,,,216.02242935000686,6,blank-12.jpg,KN,1,vpnl,2023-11-15_20h39.46.667,shortbabyloc,2023.2.2,59.927673889030366,
,,,,,,,,216.5305333819997,6,blank-13.jpg,KN,1,vpnl,2023-11-15_20h39.46.667,shortbabyloc,2023.2.2,59.927673889030366,
,,,,,,,,217.03049909700349,6,blank-14.jpg,KN,1,vpnl,2023-11-15_20h39.46.667,shortbabyloc,2023.2.2,59.927673889030366,
,,,,,,,,217.53042200001073,6,blank-15.jpg,KN,1,vpnl,2023-11-15_20h39.46.667,shortbabyloc,2023.2.2,59.927673889030366,
,,,,,,,,218.030708478007,6,blank-16.jpg,KN,1,vpnl,2023-11-15_20h39.46.667,shortbabyloc,2023.2.2,59.927673889030366,
,,,,,,,,218.53075844500563,7,cars-9.jpg,KN,1,vpnl,2023-11-15_20h39.46.667,shortbabyloc,2023.2.2,59.927673889030366,
,,,,,,,,219.0306886420003,7,cars-10.jpg,KN,1,vpnl,2023-11-15_20h39.46.667,shortbabyloc,2023.2.2,59.927673889030366,
,,,,,,,,219.53091829300683,7,cars-11.jpg,KN,1,vpnl,2023-11-15_20h39.46.667,shortbabyloc,2023.2.2,59.927673889030366,
,,,,,,,,220.0305999800039,7,cars-12.jpg,KN,1,vpnl,2023-11-15_20h39.46.667,shortbabyloc,2023.2.2,59.927673889030366,
,,,,,,,,220.53063551400555,7,cars-13.jpg,KN,1,vpnl,2023-11-15_20h39.46.667,shortbabyloc,2023.2.2,59.927673889030366,
,,,,,,,,221.03036237000197,7,cars-14.jpg,KN,1,vpnl,2023-11-15_20h39.46.667,shortbabyloc,2023.2.2,59.927673889030366,
,,,,,,,,221.53031697499682,7,cars-15.jpg,KN,1,vpnl,2023-11-15_20h39.46.667,shortbabyloc,2023.2.2,59.927673889030366,
,,,,,,,,222.03040003799833,7,cars-16.jpg,KN,1,vpnl,2023-11-15_20h39.46.667,shortbabyloc,2023.2.2,59.927673889030366,
,,,,,,,,222.53032442599942,8,hands-9.jpg,KN,1,vpnl,2023-11-15_20h39.46.667,shortbabyloc,2023.2.2,59.927673889030366,
,,,,,,,,223.03049573600583,8,hands-10.jpg,KN,1,vpnl,2023-11-15_20h39.46.667,shortbabyloc,2023.2.2,59.927673889030366,
,,,,,,,,223.53057818699745,8,hands-11.jpg,KN,1,vpnl,2023-11-15_20h39.46.667,shortbabyloc,2023.2.2,59.927673889030366,
,,,,,,,,224.03055782101,8,hands-12.jpg,KN,1,vpnl,2023-11-15_20h39.46.667,shortbabyloc,2023.2.2,59.927673889030366,
,,,,,,,,224.52969407600176,8,hands-13.jpg,KN,1,vpnl,2023-11-15_20h39.46.667,shortbabyloc,2023.2.2,59.927673889030366,
,,,,,,,,225.03045445200405,8,hands-14.jpg,KN,1,vpnl,2023-11-15_20h39.46.667,shortbabyloc,2023.2.2,59.927673889030366,
,,,,,,,,225.5300833509973,8,hands-15.jpg,KN,1,vpnl,2023-11-15_20h39.46.667,shortbabyloc,2023.2.2,59.927673889030366,
,,,,,,,,226.03059790300904,8,hands-16.jpg,KN,1,vpnl,2023-11-15_20h39.46.667,shortbabyloc,2023.2.2,59.927673889030366,
,,,,,,,,226.53038897200895,9,scenes-9.jpg,KN,1,vpnl,2023-11-15_20h39.46.667,shortbabyloc,2023.2.2,59.927673889030366,
,,,,,,,,227.030405677011,9,scenes-10.jpg,KN,1,vpnl,2023-11-15_20h39.46.667,shortbabyloc,2023.2.2,59.927673889030366,
,,,,,,,,227.53035349500715,9,scenes-11.jpg,KN,1,vpnl,2023-11-15_20h39.46.667,shortbabyloc,2023.2.2,59.927673889030366,
,,,,,,,,228.0301721170108,9,scenes-12.jpg,KN,1,vpnl,2023-11-15_20h39.46.667,shortbabyloc,2023.2.2,59.927673889030366,
,,,,,,,,228.52996884500317,9,scenes-13.jpg,KN,1,vpnl,2023-11-15_20h39.46.667,shortbabyloc,2023.2.2,59.927673889030366,
,,,,,,,,229.03028636400995,9,scenes-14.jpg,KN,1,vpnl,2023-11-15_20h39.46.667,shortbabyloc,2023.2.2,59.927673889030366,
,,,,,,,,229.53059747100633,9,scenes-15.jpg,KN,1,vpnl,2023-11-15_20h39.46.667,shortbabyloc,2023.2.2,59.927673889030366,
,,,,,,,,230.03045328099688,9,scenes-16.jpg,KN,1,vpnl,2023-11-15_20h39.46.667,shortbabyloc,2023.2.2,59.927673889030366,
,,,,,,,,230.52996680300566,10,blank-17.jpg,KN,1,vpnl,2023-11-15_20h39.46.667,shortbabyloc,2023.2.2,59.927673889030366,
,,,,,,,,231.03016235301038,10,blank-18.jpg,KN,1,vpnl,2023-11-15_20h39.46.667,shortbabyloc,2023.2.2,59.927673889030366,
,,,,,,,,231.5301596060017,10,blank-19.jpg,KN,1,vpnl,2023-11-15_20h39.46.667,shortbabyloc,2023.2.2,59.927673889030366,
,,,,,,,,232.03024122100032,10,blank-20.jpg,KN,1,vpnl,2023-11-15_20h39.46.667,shortbabyloc,2023.2.2,59.927673889030366,
,,,,,,,,232.53012883300835,10,blank-21.jpg,KN,1,vpnl,2023-11-15_20h39.46.667,shortbabyloc,2023.2.2,59.927673889030366,
,,,,,,,,233.03015789100027,10,blank-22.jpg,KN,1,vpnl,2023-11-15_20h39.46.667,shortbabyloc,2023.2.2,59.927673889030366,
,,,,,,,,233.5301594370103,10,blank-23.jpg,KN,1,vpnl,2023-11-15_20h39.46.667,shortbabyloc,2023.2.2,59.927673889030366,
,,,,,,,,234.03038355700846,10,blank-24.jpg,KN,1,vpnl,2023-11-15_20h39.46.667,shortbabyloc,2023.2.2,59.927673889030366,
,,,,,,,,234.53016146500886,11,faces-9.jpg,KN,1,vpnl,2023-11-15_20h39.46.667,shortbabyloc,2023.2.2,59.927673889030366,
,,,,,,,,235.02400376400328,11,faces-10.jpg,KN,1,vpnl,2023-11-15_20h39.46.667,shortbabyloc,2023.2.2,59.927673889030366,
,,,,,,,,235.5298271549982,11,faces-11.jpg,KN,1,vpnl,2023-11-15_20h39.46.667,shortbabyloc,2023.2.2,59.927673889030366,
,,,,,,,,236.03017908500624,11,faces-12.jpg,KN,1,vpnl,2023-11-15_20h39.46.667,shortbabyloc,2023.2.2,59.927673889030366,
,,,,,,,,236.53019353499985,11,faces-13.jpg,KN,1,vpnl,2023-11-15_20h39.46.667,shortbabyloc,2023.2.2,59.927673889030366,
,,,,,,,,237.03034071600996,11,faces-14.jpg,KN,1,vpnl,2023-11-15_20h39.46.667,shortbabyloc,2023.2.2,59.927673889030366,
,,,,,,,,237.52965484300512,11,faces-15.jpg,KN,1,vpnl,2023-11-15_20h39.46.667,shortbabyloc,2023.2.2,59.927673889030366,
,,,,,,,,238.03060824400745,11,faces-16.jpg,KN,1,vpnl,2023-11-15_20h39.46.667,shortbabyloc,2023.2.2,59.927673889030366,
,,,,,,,,238.53000841200992,12,scenes-17.jpg,KN,1,vpnl,2023-11-15_20h39.46.667,shortbabyloc,2023.2.2,59.927673889030366,
,,,,,,,,239.03035859399824,12,scenes-18.jpg,KN,1,vpnl,2023-11-15_20h39.46.667,shortbabyloc,2023.2.2,59.927673889030366,
,,,,,,,,239.5302892000036,12,scenes-19.jpg,KN,1,vpnl,2023-11-15_20h39.46.667,shortbabyloc,2023.2.2,59.927673889030366,
,,,,,,,,240.0301545560069,12,scenes-20.jpg,KN,1,vpnl,2023-11-15_20h39.46.667,shortbabyloc,2023.2.2,59.927673889030366,
,,,,,,,,240.52947613500874,12,scenes-21.jpg,KN,1,vpnl,2023-11-15_20h39.46.667,shortbabyloc,2023.2.2,59.927673889030366,
,,,,,,,,241.01740800699918,12,scenes-22.jpg,KN,1,vpnl,2023-11-15_20h39.46.667,shortbabyloc,2023.2.2,59.927673889030366,
,,,,,,,,241.52923465101048,12,scenes-23.jpg,KN,1,vpnl,2023-11-15_20h39.46.667,shortbabyloc,2023.2.2,59.927673889030366,
,,,,,,,,242.03305114700925,12,scenes-24.jpg,KN,1,vpnl,2023-11-15_20h39.46.667,shortbabyloc,2023.2.2,59.927673889030366,
,,,,,,,,242.5304857650044,13,cars-17.jpg,KN,1,vpnl,2023-11-15_20h39.46.667,shortbabyloc,2023.2.2,59.927673889030366,
,,,,,,,,243.03002046899928,13,cars-18.jpg,KN,1,vpnl,2023-11-15_20h39.46.667,shortbabyloc,2023.2.2,59.927673889030366,
,,,,,,,,243.53018285200233,13,cars-19.jpg,KN,1,vpnl,2023-11-15_20h39.46.667,shortbabyloc,2023.2.2,59.927673889030366,
,,,,,,,,244.01718230100232,13,cars-20.jpg,KN,1,vpnl,2023-11-15_20h39.46.667,shortbabyloc,2023.2.2,59.927673889030366,
,,,,,,,,244.5301440129988,13,cars-21.jpg,KN,1,vpnl,2023-11-15_20h39.46.667,shortbabyloc,2023.2.2,59.927673889030366,
,,,,,,,,245.03328754199902,13,cars-22.jpg,KN,1,vpnl,2023-11-15_20h39.46.667,shortbabyloc,2023.2.2,59.927673889030366,
,,,,,,,,245.5293404690019,13,cars-23.jpg,KN,1,vpnl,2023-11-15_20h39.46.667,shortbabyloc,2023.2.2,59.927673889030366,
,,,,,,,,246.03010066100978,13,cars-24.jpg,KN,1,vpnl,2023-11-15_20h39.46.667,shortbabyloc,2023.2.2,59.927673889030366,
,,,,,,,,246.52966582200315,14,faces-17.jpg,KN,1,vpnl,2023-11-15_20h39.46.667,shortbabyloc,2023.2.2,59.927673889030366,
,,,,,,,,247.0297323010018,14,faces-18.jpg,KN,1,vpnl,2023-11-15_20h39.46.667,shortbabyloc,2023.2.2,59.927673889030366,
,,,,,,,,247.52972275699722,14,faces-19.jpg,KN,1,vpnl,2023-11-15_20h39.46.667,shortbabyloc,2023.2.2,59.927673889030366,
,,,,,,,,248.03296254000452,14,faces-20.jpg,KN,1,vpnl,2023-11-15_20h39.46.667,shortbabyloc,2023.2.2,59.927673889030366,
,,,,,,,,248.52994472200226,14,faces-21.jpg,KN,1,vpnl,2023-11-15_20h39.46.667,shortbabyloc,2023.2.2,59.927673889030366,
,,,,,,,,249.02928132200032,14,faces-22.jpg,KN,1,vpnl,2023-11-15_20h39.46.667,shortbabyloc,2023.2.2,59.927673889030366,
,,,,,,,,249.53001980000408,14,faces-23.jpg,KN,1,vpnl,2023-11-15_20h39.46.667,shortbabyloc,2023.2.2,59.927673889030366,
,,,,,,,,250.02998518499953,14,faces-24.jpg,KN,1,vpnl,2023-11-15_20h39.46.667,shortbabyloc,2023.2.2,59.927673889030366,
,,,,,,,,250.53030419100833,15,blank-25.jpg,KN,1,vpnl,2023-11-15_20h39.46.667,shortbabyloc,2023.2.2,59.927673889030366,
,,,,,,,,251.0328595930041,15,blank-26.jpg,KN,1,vpnl,2023-11-15_20h39.46.667,shortbabyloc,2023.2.2,59.927673889030366,
,,,,,,,,251.52997279699775,15,blank-27.jpg,KN,1,vpnl,2023-11-15_20h39.46.667,shortbabyloc,2023.2.2,59.927673889030366,
,,,,,,,,252.02988064200326,15,blank-28.jpg,KN,1,vpnl,2023-11-15_20h39.46.667,shortbabyloc,2023.2.2,59.927673889030366,
,,,,,,,,252.52961715700803,15,blank-29.jpg,KN,1,vpnl,2023-11-15_20h39.46.667,shortbabyloc,2023.2.2,59.927673889030366,
,,,,,,,,253.033267589999,15,blank-30.jpg,KN,1,vpnl,2023-11-15_20h39.46.667,shortbabyloc,2023.2.2,59.927673889030366,
,,,,,,,,253.5301012550044,15,blank-31.jpg,KN,1,vpnl,2023-11-15_20h39.46.667,shortbabyloc,2023.2.2,59.927673889030366,
,,,,,,,,254.02967727500072,15,blank-32.jpg,KN,1,vpnl,2023-11-15_20h39.46.667,shortbabyloc,2023.2.2,59.927673889030366,
,,,,,,,,254.52990832799696,16,hands-17.jpg,KN,1,vpnl,2023-11-15_20h39.46.667,shortbabyloc,2023.2.2,59.927673889030366,
,,,,,,,,255.03004079000675,16,hands-18.jpg,KN,1,vpnl,2023-11-15_20h39.46.667,shortbabyloc,2023.2.2,59.927673889030366,
,,,,,,,,255.52950992400292,16,hands-19.jpg,KN,1,vpnl,2023-11-15_20h39.46.667,shortbabyloc,2023.2.2,59.927673889030366,
,,,,,,,,256.03305358700163,16,hands-20.jpg,KN,1,vpnl,2023-11-15_20h39.46.667,shortbabyloc,2023.2.2,59.927673889030366,
,,,,,,,,256.5299523510039,16,hands-21.jpg,KN,1,vpnl,2023-11-15_20h39.46.667,shortbabyloc,2023.2.2,59.927673889030366,
,,,,,,,,257.02956305000407,16,hands-22.jpg,KN,1,vpnl,2023-11-15_20h39.46.667,shortbabyloc,2023.2.2,59.927673889030366,
,,,,,,,,257.5299582250009,16,hands-23.jpg,KN,1,vpnl,2023-11-15_20h39.46.667,shortbabyloc,2023.2.2,59.927673889030366,
,,,,,,,,258.0294341539993,16,hands-24.jpg,KN,1,vpnl,2023-11-15_20h39.46.667,shortbabyloc,2023.2.2,59.927673889030366,
,,,,,,,,258.5295972680033,17,blank-33.jpg,KN,1,vpnl,2023-11-15_20h39.46.667,shortbabyloc,2023.2.2,59.927673889030366,
,,,,,,,,259.0334722670086,17,blank-34.jpg,KN,1,vpnl,2023-11-15_20h39.46.667,shortbabyloc,2023.2.2,59.927673889030366,
,,,,,,,,259.5304066300014,17,blank-35.jpg,KN,1,vpnl,2023-11-15_20h39.46.667,shortbabyloc,2023.2.2,59.927673889030366,
,,,,,,,,260.03242822599714,17,blank-36.jpg,KN,1,vpnl,2023-11-15_20h39.46.667,shortbabyloc,2023.2.2,59.927673889030366,
,,,,,,,,260.5298116449994,17,blank-37.jpg,KN,1,vpnl,2023-11-15_20h39.46.667,shortbabyloc,2023.2.2,59.927673889030366,
,,,,,,,,261.0294433990057,17,blank-38.jpg,KN,1,vpnl,2023-11-15_20h39.46.667,shortbabyloc,2023.2.2,59.927673889030366,
,,,,,,,,261.5294192319998,17,blank-39.jpg,KN,1,vpnl,2023-11-15_20h39.46.667,shortbabyloc,2023.2.2,59.927673889030366,
,,,,,,,,262.0297177340108,17,blank-40.jpg,KN,1,vpnl,2023-11-15_20h39.46.667,shortbabyloc,2023.2.2,59.927673889030366,
,,,,,,,,262.52964931000315,18,cars-25.jpg,KN,1,vpnl,2023-11-15_20h39.46.667,shortbabyloc,2023.2.2,59.927673889030366,
,,,,,,,,263.0295440059999,18,cars-26.jpg,KN,1,vpnl,2023-11-15_20h39.46.667,shortbabyloc,2023.2.2,59.927673889030366,
,,,,,,,,263.52971274300944,18,cars-27.jpg,KN,1,vpnl,2023-11-15_20h39.46.667,shortbabyloc,2023.2.2,59.927673889030366,
,,,,,,,,264.03616287300247,18,cars-28.jpg,KN,1,vpnl,2023-11-15_20h39.46.667,shortbabyloc,2023.2.2,59.927673889030366,
,,,,,,,,264.5288344990113,18,cars-29.jpg,KN,1,vpnl,2023-11-15_20h39.46.667,shortbabyloc,2023.2.2,59.927673889030366,
,,,,,,,,265.0293614250113,18,cars-30.jpg,KN,1,vpnl,2023-11-15_20h39.46.667,shortbabyloc,2023.2.2,59.927673889030366,
,,,,,,,,265.5293438570079,18,cars-31.jpg,KN,1,vpnl,2023-11-15_20h39.46.667,shortbabyloc,2023.2.2,59.927673889030366,
,,,,,,,,266.0295300560101,18,cars-32.jpg,KN,1,vpnl,2023-11-15_20h39.46.667,shortbabyloc,2023.2.2,59.927673889030366,
,,,,,,,,266.52980431800825,19,faces-25.jpg,KN,1,vpnl,2023-11-15_20h39.46.667,shortbabyloc,2023.2.2,59.927673889030366,
,,,,,,,,267.0293996340042,19,faces-26.jpg,KN,1,vpnl,2023-11-15_20h39.46.667,shortbabyloc,2023.2.2,59.927673889030366,
,,,,,,,,267.5292441299971,19,faces-27.jpg,KN,1,vpnl,2023-11-15_20h39.46.667,shortbabyloc,2023.2.2,59.927673889030366,
,,,,,,,,268.02861780900275,19,faces-28.jpg,KN,1,vpnl,2023-11-15_20h39.46.667,shortbabyloc,2023.2.2,59.927673889030366,
,,,,,,,,268.5293776030012,19,faces-29.jpg,KN,1,vpnl,2023-11-15_20h39.46.667,shortbabyloc,2023.2.2,59.927673889030366,
,,,,,,,,269.02950638800394,19,faces-30.jpg,KN,1,vpnl,2023-11-15_20h39.46.667,shortbabyloc,2023.2.2,59.927673889030366,
,,,,,,,,269.52957856100693,19,faces-31.jpg,KN,1,vpnl,2023-11-15_20h39.46.667,shortbabyloc,2023.2.2,59.927673889030366,
,,,,,,,,270.0295321989979,19,faces-32.jpg,KN,1,vpnl,2023-11-15_20h39.46.667,shortbabyloc,2023.2.2,59.927673889030366,
,,,,,,,,270.5299270700052,20,hands-25.jpg,KN,1,vpnl,2023-11-15_20h39.46.667,shortbabyloc,2023.2.2,59.927673889030366,
,,,,,,,,271.0296748170076,20,hands-26.jpg,KN,1,vpnl,2023-11-15_20h39.46.667,shortbabyloc,2023.2.2,59.927673889030366,
,,,,,,,,271.5292075769976,20,hands-27.jpg,KN,1,vpnl,2023-11-15_20h39.46.667,shortbabyloc,2023.2.2,59.927673889030366,
,,,,,,,,272.0284442319971,20,hands-28.jpg,KN,1,vpnl,2023-11-15_20h39.46.667,shortbabyloc,2023.2.2,59.927673889030366,
,,,,,,,,272.5294391040079,20,hands-29.jpg,KN,1,vpnl,2023-11-15_20h39.46.667,shortbabyloc,2023.2.2,59.927673889030366,
,,,,,,,,273.0292770310043,20,hands-30.jpg,KN,1,vpnl,2023-11-15_20h39.46.667,shortbabyloc,2023.2.2,59.927673889030366,
,,,,,,,,273.52938263400574,20,hands-31.jpg,KN,1,vpnl,2023-11-15_20h39.46.667,shortbabyloc,2023.2.2,59.927673889030366,
,,,,,,,,274.0287585740007,20,hands-32.jpg,KN,1,vpnl,2023-11-15_20h39.46.667,shortbabyloc,2023.2.2,59.927673889030366,
,,,,,,,,274.52969947300153,21,scenes-25.jpg,KN,1,vpnl,2023-11-15_20h39.46.667,shortbabyloc,2023.2.2,59.927673889030366,
,,,,,,,,275.02871243499976,21,scenes-26.jpg,KN,1,vpnl,2023-11-15_20h39.46.667,shortbabyloc,2023.2.2,59.927673889030366,
,,,,,,,,275.52929436300474,21,scenes-27.jpg,KN,1,vpnl,2023-11-15_20h39.46.667,shortbabyloc,2023.2.2,59.927673889030366,
,,,,,,,,276.02960164700926,21,scenes-28.jpg,KN,1,vpnl,2023-11-15_20h39.46.667,shortbabyloc,2023.2.2,59.927673889030366,
,,,,,,,,276.52929202299856,21,scenes-29.jpg,KN,1,vpnl,2023-11-15_20h39.46.667,shortbabyloc,2023.2.2,59.927673889030366,
,,,,,,,,277.02920682101103,21,scenes-30.jpg,KN,1,vpnl,2023-11-15_20h39.46.667,shortbabyloc,2023.2.2,59.927673889030366,
,,,,,,,,277.52924463800446,21,scenes-31.jpg,KN,1,vpnl,2023-11-15_20h39.46.667,shortbabyloc,2023.2.2,59.927673889030366,
,,,,,,,,278.02819543700025,21,scenes-32.jpg,KN,1,vpnl,2023-11-15_20h39.46.667,shortbabyloc,2023.2.2,59.927673889030366,
,,,,,,,,278.5293000140082,22,blank-41.jpg,KN,1,vpnl,2023-11-15_20h39.46.667,shortbabyloc,2023.2.2,59.927673889030366,
,,,,,,,,279.0293607909989,22,blank-42.jpg,KN,1,vpnl,2023-11-15_20h39.46.667,shortbabyloc,2023.2.2,59.927673889030366,
,,,,,,,,279.52929342100106,22,blank-43.jpg,KN,1,vpnl,2023-11-15_20h39.46.667,shortbabyloc,2023.2.2,59.927673889030366,
,,,,,,,,280.02923741300765,22,blank-44.jpg,KN,1,vpnl,2023-11-15_20h39.46.667,shortbabyloc,2023.2.2,59.927673889030366,
,,,,,,,,280.5288963750063,22,blank-45.jpg,KN,1,vpnl,2023-11-15_20h39.46.667,shortbabyloc,2023.2.2,59.927673889030366,
,,,,,,,,281.0282887400099,22,blank-46.jpg,KN,1,vpnl,2023-11-15_20h39.46.667,shortbabyloc,2023.2.2,59.927673889030366,
,,,,,,,,281.5297089700034,22,blank-47.jpg,KN,1,vpnl,2023-11-15_20h39.46.667,shortbabyloc,2023.2.2,59.927673889030366,
,,,,,,,,282.02955550800834,22,blank-48.jpg,KN,1,vpnl,2023-11-15_20h39.46.667,shortbabyloc,2023.2.2,59.927673889030366,
