thisRow.t,notes,waiting_for_trigger_text.started,trigger.started,trigger.keys,trigger.rt,countdown.started,trial.stopped,stimuli.started,condition,stim_name,participant,run,user,date,expName,psychopyVersion,frameRate,
,,524.06492776901,524.06492776901,t,2302.16229787498,,,,,,pilotbb,1,vpnl,2024-01-23_10h30.06.189,alternatingbabyloc,2023.2.2,92.80284602113461,
,,,,,,2826.2531324879965,2308.1981496590015,2832.2680692489957,1,blank-33.jpg,pilotbb,1,vpnl,2024-01-23_10h30.06.189,alternatingbabyloc,2023.2.2,92.80284602113461,
,,,,,,,,2832.7676728090155,1,blank-34.jpg,pilotbb,1,vpnl,2024-01-23_10h30.06.189,alternatingbabyloc,2023.2.2,92.80284602113461,
,,,,,,,,2833.2676537279913,1,blank-35.jpg,pilotbb,1,vpnl,2024-01-23_10h30.06.189,alternatingbabyloc,2023.2.2,92.80284602113461,
,,,,,,,,2833.767946597014,1,blank-36.jpg,pilotbb,1,vpnl,2024-01-23_10h30.06.189,alternatingbabyloc,2023.2.2,92.80284602113461,
,,,,,,,,2834.2668954890105,1,blank-37.jpg,pilotbb,1,vpnl,2024-01-23_10h30.06.189,alternatingbabyloc,2023.2.2,92.80284602113461,
,,,,,,,,2834.76771290999,1,blank-38.jpg,pilotbb,1,vpnl,2024-01-23_10h30.06.189,alternatingbabyloc,2023.2.2,92.80284602113461,
,,,,,,,,2835.267770876002,1,blank-39.jpg,pilotbb,1,vpnl,2024-01-23_10h30.06.189,alternatingbabyloc,2023.2.2,92.80284602113461,
,,,,,,,,2835.7668204680085,1,blank-40.jpg,pilotbb,1,vpnl,2024-01-23_10h30.06.189,alternatingbabyloc,2023.2.2,92.80284602113461,
,,,,,,,,2836.2676072329923,2,cars-33.jpg,pilotbb,1,vpnl,2024-01-23_10h30.06.189,alternatingbabyloc,2023.2.2,92.80284602113461,
,,,,,,,,2836.7678791880026,2,cars-34.jpg,pilotbb,1,vpnl,2024-01-23_10h30.06.189,alternatingbabyloc,2023.2.2,92.80284602113461,
,,,,,,,,2837.266901377996,2,cars-35.jpg,pilotbb,1,vpnl,2024-01-23_10h30.06.189,alternatingbabyloc,2023.2.2,92.80284602113461,
,,,,,,,,2837.7676601030107,2,cars-36.jpg,pilotbb,1,vpnl,2024-01-23_10h30.06.189,alternatingbabyloc,2023.2.2,92.80284602113461,
,,,,,,,,2838.267810484016,2,cars-37.jpg,pilotbb,1,vpnl,2024-01-23_10h30.06.189,alternatingbabyloc,2023.2.2,92.80284602113461,
,,,,,,,,2838.7675266390142,2,cars-38.jpg,pilotbb,1,vpnl,2024-01-23_10h30.06.189,alternatingbabyloc,2023.2.2,92.80284602113461,
,,,,,,,,2839.266699397005,2,cars-39.jpg,pilotbb,1,vpnl,2024-01-23_10h30.06.189,alternatingbabyloc,2023.2.2,92.80284602113461,
,,,,,,,,2839.7679259740107,2,cars-40.jpg,pilotbb,1,vpnl,2024-01-23_10h30.06.189,alternatingbabyloc,2023.2.2,92.80284602113461,
,,,,,,,,2840.2677437370003,3,scenes-33.jpg,pilotbb,1,vpnl,2024-01-23_10h30.06.189,alternatingbabyloc,2023.2.2,92.80284602113461,
,,,,,,,,2840.767752626998,3,scenes-34.jpg,pilotbb,1,vpnl,2024-01-23_10h30.06.189,alternatingbabyloc,2023.2.2,92.80284602113461,
,,,,,,,,2841.2666438200104,3,scenes-35.jpg,pilotbb,1,vpnl,2024-01-23_10h30.06.189,alternatingbabyloc,2023.2.2,92.80284602113461,
,,,,,,,,2841.767572498007,3,scenes-36.jpg,pilotbb,1,vpnl,2024-01-23_10h30.06.189,alternatingbabyloc,2023.2.2,92.80284602113461,
,,,,,,,,2842.2678700860124,3,scenes-37.jpg,pilotbb,1,vpnl,2024-01-23_10h30.06.189,alternatingbabyloc,2023.2.2,92.80284602113461,
,,,,,,,,2842.7674176130095,3,scenes-38.jpg,pilotbb,1,vpnl,2024-01-23_10h30.06.189,alternatingbabyloc,2023.2.2,92.80284602113461,
,,,,,,,,2843.266625648015,3,scenes-39.jpg,pilotbb,1,vpnl,2024-01-23_10h30.06.189,alternatingbabyloc,2023.2.2,92.80284602113461,
,,,,,,,,2843.7677731089934,3,scenes-40.jpg,pilotbb,1,vpnl,2024-01-23_10h30.06.189,alternatingbabyloc,2023.2.2,92.80284602113461,
,,,,,,,,2844.2679965440184,4,faces-33.jpg,pilotbb,1,vpnl,2024-01-23_10h30.06.189,alternatingbabyloc,2023.2.2,92.80284602113461,
,,,,,,,,2844.7672978659975,4,faces-34.jpg,pilotbb,1,vpnl,2024-01-23_10h30.06.189,alternatingbabyloc,2023.2.2,92.80284602113461,
,,,,,,,,2845.2674191810074,4,faces-35.jpg,pilotbb,1,vpnl,2024-01-23_10h30.06.189,alternatingbabyloc,2023.2.2,92.80284602113461,
,,,,,,,,2845.7667879899964,4,faces-36.jpg,pilotbb,1,vpnl,2024-01-23_10h30.06.189,alternatingbabyloc,2023.2.2,92.80284602113461,
,,,,,,,,2846.266736445017,4,faces-37.jpg,pilotbb,1,vpnl,2024-01-23_10h30.06.189,alternatingbabyloc,2023.2.2,92.80284602113461,
,,,,,,,,2846.7664603189914,4,faces-38.jpg,pilotbb,1,vpnl,2024-01-23_10h30.06.189,alternatingbabyloc,2023.2.2,92.80284602113461,
,,,,,,,,2847.2682763530174,4,faces-39.jpg,pilotbb,1,vpnl,2024-01-23_10h30.06.189,alternatingbabyloc,2023.2.2,92.80284602113461,
,,,,,,,,2847.7665788930026,4,faces-40.jpg,pilotbb,1,vpnl,2024-01-23_10h30.06.189,alternatingbabyloc,2023.2.2,92.80284602113461,
,,,,,,,,2848.2665899170097,5,hands-33.jpg,pilotbb,1,vpnl,2024-01-23_10h30.06.189,alternatingbabyloc,2023.2.2,92.80284602113461,
,,,,,,,,2848.7676689520013,5,hands-34.jpg,pilotbb,1,vpnl,2024-01-23_10h30.06.189,alternatingbabyloc,2023.2.2,92.80284602113461,
,,,,,,,,2849.2668851100025,5,hands-35.jpg,pilotbb,1,vpnl,2024-01-23_10h30.06.189,alternatingbabyloc,2023.2.2,92.80284602113461,
,,,,,,,,2849.766601486015,5,hands-36.jpg,pilotbb,1,vpnl,2024-01-23_10h30.06.189,alternatingbabyloc,2023.2.2,92.80284602113461,
,,,,,,,,2850.267815995001,5,hands-37.jpg,pilotbb,1,vpnl,2024-01-23_10h30.06.189,alternatingbabyloc,2023.2.2,92.80284602113461,
,,,,,,,,2850.7678590310097,5,hands-38.jpg,pilotbb,1,vpnl,2024-01-23_10h30.06.189,alternatingbabyloc,2023.2.2,92.80284602113461,
,,,,,,,,2851.2674009460025,5,hands-39.jpg,pilotbb,1,vpnl,2024-01-23_10h30.06.189,alternatingbabyloc,2023.2.2,92.80284602113461,
,,,,,,,,2851.7665103659965,5,hands-40.jpg,pilotbb,1,vpnl,2024-01-23_10h30.06.189,alternatingbabyloc,2023.2.2,92.80284602113461,
,,,,,,,,2852.267599977,6,blank-41.jpg,pilotbb,1,vpnl,2024-01-23_10h30.06.189,alternatingbabyloc,2023.2.2,92.80284602113461,
,,,,,,,,2852.767198590009,6,blank-42.jpg,pilotbb,1,vpnl,2024-01-23_10h30.06.189,alternatingbabyloc,2023.2.2,92.80284602113461,
,,,,,,,,2853.2668385390134,6,blank-43.jpg,pilotbb,1,vpnl,2024-01-23_10h30.06.189,alternatingbabyloc,2023.2.2,92.80284602113461,
,,,,,,,,2853.767331315001,6,blank-44.jpg,pilotbb,1,vpnl,2024-01-23_10h30.06.189,alternatingbabyloc,2023.2.2,92.80284602113461,
,,,,,,,,2854.266462358006,6,blank-45.jpg,pilotbb,1,vpnl,2024-01-23_10h30.06.189,alternatingbabyloc,2023.2.2,92.80284602113461,
,,,,,,,,2854.767392598995,6,blank-46.jpg,pilotbb,1,vpnl,2024-01-23_10h30.06.189,alternatingbabyloc,2023.2.2,92.80284602113461,
,,,,,,,,2855.266495602991,6,blank-47.jpg,pilotbb,1,vpnl,2024-01-23_10h30.06.189,alternatingbabyloc,2023.2.2,92.80284602113461,
,,,,,,,,2855.76741916599,6,blank-48.jpg,pilotbb,1,vpnl,2024-01-23_10h30.06.189,alternatingbabyloc,2023.2.2,92.80284602113461,
,,,,,,,,2856.2669311139907,7,hands-41.jpg,pilotbb,1,vpnl,2024-01-23_10h30.06.189,alternatingbabyloc,2023.2.2,92.80284602113461,
,,,,,,,,2856.766724346002,7,hands-42.jpg,pilotbb,1,vpnl,2024-01-23_10h30.06.189,alternatingbabyloc,2023.2.2,92.80284602113461,
,,,,,,,,2857.266679740016,7,hands-43.jpg,pilotbb,1,vpnl,2024-01-23_10h30.06.189,alternatingbabyloc,2023.2.2,92.80284602113461,
,,,,,,,,2857.7665486310143,7,hands-44.jpg,pilotbb,1,vpnl,2024-01-23_10h30.06.189,alternatingbabyloc,2023.2.2,92.80284602113461,
,,,,,,,,2858.266581859003,7,hands-45.jpg,pilotbb,1,vpnl,2024-01-23_10h30.06.189,alternatingbabyloc,2023.2.2,92.80284602113461,
,,,,,,,,2858.7665569010132,7,hands-46.jpg,pilotbb,1,vpnl,2024-01-23_10h30.06.189,alternatingbabyloc,2023.2.2,92.80284602113461,
,,,,,,,,2859.266629885009,7,hands-47.jpg,pilotbb,1,vpnl,2024-01-23_10h30.06.189,alternatingbabyloc,2023.2.2,92.80284602113461,
,,,,,,,,2859.7673168409965,7,hands-48.jpg,pilotbb,1,vpnl,2024-01-23_10h30.06.189,alternatingbabyloc,2023.2.2,92.80284602113461,
,,,,,,,,2860.266375739011,8,scenes-41.jpg,pilotbb,1,vpnl,2024-01-23_10h30.06.189,alternatingbabyloc,2023.2.2,92.80284602113461,
,,,,,,,,2860.7673489240115,8,scenes-42.jpg,pilotbb,1,vpnl,2024-01-23_10h30.06.189,alternatingbabyloc,2023.2.2,92.80284602113461,
,,,,,,,,2861.2670819410123,8,scenes-43.jpg,pilotbb,1,vpnl,2024-01-23_10h30.06.189,alternatingbabyloc,2023.2.2,92.80284602113461,
,,,,,,,,2861.767005909991,8,scenes-44.jpg,pilotbb,1,vpnl,2024-01-23_10h30.06.189,alternatingbabyloc,2023.2.2,92.80284602113461,
,,,,,,,,2862.266383787006,8,scenes-45.jpg,pilotbb,1,vpnl,2024-01-23_10h30.06.189,alternatingbabyloc,2023.2.2,92.80284602113461,
,,,,,,,,2862.7671615710133,8,scenes-46.jpg,pilotbb,1,vpnl,2024-01-23_10h30.06.189,alternatingbabyloc,2023.2.2,92.80284602113461,
,,,,,,,,2863.2673523279955,8,scenes-47.jpg,pilotbb,1,vpnl,2024-01-23_10h30.06.189,alternatingbabyloc,2023.2.2,92.80284602113461,
,,,,,,,,2863.7670877540077,8,scenes-48.jpg,pilotbb,1,vpnl,2024-01-23_10h30.06.189,alternatingbabyloc,2023.2.2,92.80284602113461,
,,,,,,,,2864.267252140009,9,faces-41.jpg,pilotbb,1,vpnl,2024-01-23_10h30.06.189,alternatingbabyloc,2023.2.2,92.80284602113461,
,,,,,,,,2864.7663709780027,9,faces-42.jpg,pilotbb,1,vpnl,2024-01-23_10h30.06.189,alternatingbabyloc,2023.2.2,92.80284602113461,
,,,,,,,,2865.2662506719935,9,faces-43.jpg,pilotbb,1,vpnl,2024-01-23_10h30.06.189,alternatingbabyloc,2023.2.2,92.80284602113461,
,,,,,,,,2865.7673860529903,9,faces-44.jpg,pilotbb,1,vpnl,2024-01-23_10h30.06.189,alternatingbabyloc,2023.2.2,92.80284602113461,
,,,,,,,,2866.266592036991,9,faces-45.jpg,pilotbb,1,vpnl,2024-01-23_10h30.06.189,alternatingbabyloc,2023.2.2,92.80284602113461,
,,,,,,,,2866.766985663009,9,faces-46.jpg,pilotbb,1,vpnl,2024-01-23_10h30.06.189,alternatingbabyloc,2023.2.2,92.80284602113461,
,,,,,,,,2867.266994433012,9,faces-47.jpg,pilotbb,1,vpnl,2024-01-23_10h30.06.189,alternatingbabyloc,2023.2.2,92.80284602113461,
,,,,,,,,2867.7669590190053,9,faces-48.jpg,pilotbb,1,vpnl,2024-01-23_10h30.06.189,alternatingbabyloc,2023.2.2,92.80284602113461,
,,,,,,,,2868.2671290720173,10,blank-49.jpg,pilotbb,1,vpnl,2024-01-23_10h30.06.189,alternatingbabyloc,2023.2.2,92.80284602113461,
,,,,,,,,2868.7661652239913,10,blank-50.jpg,pilotbb,1,vpnl,2024-01-23_10h30.06.189,alternatingbabyloc,2023.2.2,92.80284602113461,
,,,,,,,,2869.2662192040007,10,blank-51.jpg,pilotbb,1,vpnl,2024-01-23_10h30.06.189,alternatingbabyloc,2023.2.2,92.80284602113461,
,,,,,,,,2869.767055528995,10,blank-52.jpg,pilotbb,1,vpnl,2024-01-23_10h30.06.189,alternatingbabyloc,2023.2.2,92.80284602113461,
,,,,,,,,2870.2661499090027,10,blank-53.jpg,pilotbb,1,vpnl,2024-01-23_10h30.06.189,alternatingbabyloc,2023.2.2,92.80284602113461,
,,,,,,,,2870.7670065120037,10,blank-54.jpg,pilotbb,1,vpnl,2024-01-23_10h30.06.189,alternatingbabyloc,2023.2.2,92.80284602113461,
,,,,,,,,2871.2673666920164,10,blank-55.jpg,pilotbb,1,vpnl,2024-01-23_10h30.06.189,alternatingbabyloc,2023.2.2,92.80284602113461,
,,,,,,,,2871.767314733006,10,blank-56.jpg,pilotbb,1,vpnl,2024-01-23_10h30.06.189,alternatingbabyloc,2023.2.2,92.80284602113461,
,,,,,,,,2872.2662511579983,11,cars-41.jpg,pilotbb,1,vpnl,2024-01-23_10h30.06.189,alternatingbabyloc,2023.2.2,92.80284602113461,
,,,,,,,,2872.766313516011,11,cars-42.jpg,pilotbb,1,vpnl,2024-01-23_10h30.06.189,alternatingbabyloc,2023.2.2,92.80284602113461,
,,,,,,,,2873.2669463779894,11,cars-43.jpg,pilotbb,1,vpnl,2024-01-23_10h30.06.189,alternatingbabyloc,2023.2.2,92.80284602113461,
,,,,,,,,2873.7662272620073,11,cars-44.jpg,pilotbb,1,vpnl,2024-01-23_10h30.06.189,alternatingbabyloc,2023.2.2,92.80284602113461,
,,,,,,,,2874.267259646993,11,cars-45.jpg,pilotbb,1,vpnl,2024-01-23_10h30.06.189,alternatingbabyloc,2023.2.2,92.80284602113461,
,,,,,,,,2874.7671477870026,11,cars-46.jpg,pilotbb,1,vpnl,2024-01-23_10h30.06.189,alternatingbabyloc,2023.2.2,92.80284602113461,
,,,,,,,,2875.2669418250152,11,cars-47.jpg,pilotbb,1,vpnl,2024-01-23_10h30.06.189,alternatingbabyloc,2023.2.2,92.80284602113461,
,,,,,,,,2875.767441175005,11,cars-48.jpg,pilotbb,1,vpnl,2024-01-23_10h30.06.189,alternatingbabyloc,2023.2.2,92.80284602113461,
,,,,,,,,2876.266125323018,12,blank-57.jpg,pilotbb,1,vpnl,2024-01-23_10h30.06.189,alternatingbabyloc,2023.2.2,92.80284602113461,
,,,,,,,,2876.766131215001,12,blank-58.jpg,pilotbb,1,vpnl,2024-01-23_10h30.06.189,alternatingbabyloc,2023.2.2,92.80284602113461,
,,,,,,,,2877.266826526,12,blank-59.jpg,pilotbb,1,vpnl,2024-01-23_10h30.06.189,alternatingbabyloc,2023.2.2,92.80284602113461,
,,,,,,,,2877.7662356430083,12,blank-60.jpg,pilotbb,1,vpnl,2024-01-23_10h30.06.189,alternatingbabyloc,2023.2.2,92.80284602113461,
,,,,,,,,2878.2671678150073,12,blank-61.jpg,pilotbb,1,vpnl,2024-01-23_10h30.06.189,alternatingbabyloc,2023.2.2,92.80284602113461,
,,,,,,,,2878.766797274002,12,blank-62.jpg,pilotbb,1,vpnl,2024-01-23_10h30.06.189,alternatingbabyloc,2023.2.2,92.80284602113461,
,,,,,,,,2879.266482220002,12,blank-63.jpg,pilotbb,1,vpnl,2024-01-23_10h30.06.189,alternatingbabyloc,2023.2.2,92.80284602113461,
,,,,,,,,2879.7668405369914,12,blank-64.jpg,pilotbb,1,vpnl,2024-01-23_10h30.06.189,alternatingbabyloc,2023.2.2,92.80284602113461,
,,,,,,,,2880.266980504006,13,cars-49.jpg,pilotbb,1,vpnl,2024-01-23_10h30.06.189,alternatingbabyloc,2023.2.2,92.80284602113461,
,,,,,,,,2880.7667063359986,13,cars-50.jpg,pilotbb,1,vpnl,2024-01-23_10h30.06.189,alternatingbabyloc,2023.2.2,92.80284602113461,
,,,,,,,,2881.2661956569937,13,cars-51.jpg,pilotbb,1,vpnl,2024-01-23_10h30.06.189,alternatingbabyloc,2023.2.2,92.80284602113461,
,,,,,,,,2881.765971442015,13,cars-52.jpg,pilotbb,1,vpnl,2024-01-23_10h30.06.189,alternatingbabyloc,2023.2.2,92.80284602113461,
,,,,,,,,2882.266754729004,13,cars-53.jpg,pilotbb,1,vpnl,2024-01-23_10h30.06.189,alternatingbabyloc,2023.2.2,92.80284602113461,
,,,,,,,,2882.767245547002,13,cars-54.jpg,pilotbb,1,vpnl,2024-01-23_10h30.06.189,alternatingbabyloc,2023.2.2,92.80284602113461,
,,,,,,,,2883.266682532005,13,cars-55.jpg,pilotbb,1,vpnl,2024-01-23_10h30.06.189,alternatingbabyloc,2023.2.2,92.80284602113461,
,,,,,,,,2883.767530920013,13,cars-56.jpg,pilotbb,1,vpnl,2024-01-23_10h30.06.189,alternatingbabyloc,2023.2.2,92.80284602113461,
,,,,,,,,2884.26607469999,14,faces-49.jpg,pilotbb,1,vpnl,2024-01-23_10h30.06.189,alternatingbabyloc,2023.2.2,92.80284602113461,
,,,,,,,,2884.7660975430044,14,faces-50.jpg,pilotbb,1,vpnl,2024-01-23_10h30.06.189,alternatingbabyloc,2023.2.2,92.80284602113461,
,,,,,,,,2885.267266298004,14,faces-51.jpg,pilotbb,1,vpnl,2024-01-23_10h30.06.189,alternatingbabyloc,2023.2.2,92.80284602113461,
,,,,,,,,2885.7660752079973,14,faces-52.jpg,pilotbb,1,vpnl,2024-01-23_10h30.06.189,alternatingbabyloc,2023.2.2,92.80284602113461,
,,,,,,,,2886.266079505993,14,faces-53.jpg,pilotbb,1,vpnl,2024-01-23_10h30.06.189,alternatingbabyloc,2023.2.2,92.80284602113461,
,,,,,,,,2886.767145288002,14,faces-54.jpg,pilotbb,1,vpnl,2024-01-23_10h30.06.189,alternatingbabyloc,2023.2.2,92.80284602113461,
,,,,,,,,2887.2660660959955,14,faces-55.jpg,pilotbb,1,vpnl,2024-01-23_10h30.06.189,alternatingbabyloc,2023.2.2,92.80284602113461,
,,,,,,,,2887.766446844995,14,faces-56.jpg,pilotbb,1,vpnl,2024-01-23_10h30.06.189,alternatingbabyloc,2023.2.2,92.80284602113461,
,,,,,,,,2888.2667868680146,15,scenes-49.jpg,pilotbb,1,vpnl,2024-01-23_10h30.06.189,alternatingbabyloc,2023.2.2,92.80284602113461,
,,,,,,,,2888.766764986998,15,scenes-50.jpg,pilotbb,1,vpnl,2024-01-23_10h30.06.189,alternatingbabyloc,2023.2.2,92.80284602113461,
,,,,,,,,2889.2668768489966,15,scenes-51.jpg,pilotbb,1,vpnl,2024-01-23_10h30.06.189,alternatingbabyloc,2023.2.2,92.80284602113461,
,,,,,,,,2889.7668412770145,15,scenes-52.jpg,pilotbb,1,vpnl,2024-01-23_10h30.06.189,alternatingbabyloc,2023.2.2,92.80284602113461,
,,,,,,,,2890.2666553820018,15,scenes-53.jpg,pilotbb,1,vpnl,2024-01-23_10h30.06.189,alternatingbabyloc,2023.2.2,92.80284602113461,
,,,,,,,,2890.7668114599946,15,scenes-54.jpg,pilotbb,1,vpnl,2024-01-23_10h30.06.189,alternatingbabyloc,2023.2.2,92.80284602113461,
,,,,,,,,2891.2659936239943,15,scenes-55.jpg,pilotbb,1,vpnl,2024-01-23_10h30.06.189,alternatingbabyloc,2023.2.2,92.80284602113461,
,,,,,,,,2891.766916433,15,scenes-56.jpg,pilotbb,1,vpnl,2024-01-23_10h30.06.189,alternatingbabyloc,2023.2.2,92.80284602113461,
,,,,,,,,2892.2661036849895,16,hands-49.jpg,pilotbb,1,vpnl,2024-01-23_10h30.06.189,alternatingbabyloc,2023.2.2,92.80284602113461,
,,,,,,,,2892.765882923006,16,hands-50.jpg,pilotbb,1,vpnl,2024-01-23_10h30.06.189,alternatingbabyloc,2023.2.2,92.80284602113461,
,,,,,,,,2893.2658967509924,16,hands-51.jpg,pilotbb,1,vpnl,2024-01-23_10h30.06.189,alternatingbabyloc,2023.2.2,92.80284602113461,
,,,,,,,,2893.766962627007,16,hands-52.jpg,pilotbb,1,vpnl,2024-01-23_10h30.06.189,alternatingbabyloc,2023.2.2,92.80284602113461,
,,,,,,,,2894.2666937600006,16,hands-53.jpg,pilotbb,1,vpnl,2024-01-23_10h30.06.189,alternatingbabyloc,2023.2.2,92.80284602113461,
,,,,,,,,2894.7665773619956,16,hands-54.jpg,pilotbb,1,vpnl,2024-01-23_10h30.06.189,alternatingbabyloc,2023.2.2,92.80284602113461,
,,,,,,,,2895.266817708005,16,hands-55.jpg,pilotbb,1,vpnl,2024-01-23_10h30.06.189,alternatingbabyloc,2023.2.2,92.80284602113461,
,,,,,,,,2895.7659491270024,16,hands-56.jpg,pilotbb,1,vpnl,2024-01-23_10h30.06.189,alternatingbabyloc,2023.2.2,92.80284602113461,
,,,,,,,,2896.265973208996,17,scenes-57.jpg,pilotbb,1,vpnl,2024-01-23_10h30.06.189,alternatingbabyloc,2023.2.2,92.80284602113461,
,,,,,,,,2896.7660613229964,17,scenes-58.jpg,pilotbb,1,vpnl,2024-01-23_10h30.06.189,alternatingbabyloc,2023.2.2,92.80284602113461,
,,,,,,,,2897.2658731199917,17,scenes-59.jpg,pilotbb,1,vpnl,2024-01-23_10h30.06.189,alternatingbabyloc,2023.2.2,92.80284602113461,
,,,,,,,,2897.7659933580144,17,scenes-60.jpg,pilotbb,1,vpnl,2024-01-23_10h30.06.189,alternatingbabyloc,2023.2.2,92.80284602113461,
,,,,,,,,2898.2660277269897,17,scenes-61.jpg,pilotbb,1,vpnl,2024-01-23_10h30.06.189,alternatingbabyloc,2023.2.2,92.80284602113461,
,,,,,,,,2898.7660030979896,17,scenes-62.jpg,pilotbb,1,vpnl,2024-01-23_10h30.06.189,alternatingbabyloc,2023.2.2,92.80284602113461,
,,,,,,,,2899.2661986130115,17,scenes-63.jpg,pilotbb,1,vpnl,2024-01-23_10h30.06.189,alternatingbabyloc,2023.2.2,92.80284602113461,
,,,,,,,,2899.76613263099,17,scenes-64.jpg,pilotbb,1,vpnl,2024-01-23_10h30.06.189,alternatingbabyloc,2023.2.2,92.80284602113461,
,,,,,,,,2900.2665614809957,18,blank-65.jpg,pilotbb,1,vpnl,2024-01-23_10h30.06.189,alternatingbabyloc,2023.2.2,92.80284602113461,
,,,,,,,,2900.765985945007,18,blank-66.jpg,pilotbb,1,vpnl,2024-01-23_10h30.06.189,alternatingbabyloc,2023.2.2,92.80284602113461,
,,,,,,,,2901.266957470012,18,blank-67.jpg,pilotbb,1,vpnl,2024-01-23_10h30.06.189,alternatingbabyloc,2023.2.2,92.80284602113461,
,,,,,,,,2901.7657357930148,18,blank-68.jpg,pilotbb,1,vpnl,2024-01-23_10h30.06.189,alternatingbabyloc,2023.2.2,92.80284602113461,
,,,,,,,,2902.2657376179995,18,blank-69.jpg,pilotbb,1,vpnl,2024-01-23_10h30.06.189,alternatingbabyloc,2023.2.2,92.80284602113461,
,,,,,,,,2902.766971945006,18,blank-70.jpg,pilotbb,1,vpnl,2024-01-23_10h30.06.189,alternatingbabyloc,2023.2.2,92.80284602113461,
,,,,,,,,2903.2670124860015,18,blank-71.jpg,pilotbb,1,vpnl,2024-01-23_10h30.06.189,alternatingbabyloc,2023.2.2,92.80284602113461,
,,,,,,,,2903.7670736380096,18,blank-72.jpg,pilotbb,1,vpnl,2024-01-23_10h30.06.189,alternatingbabyloc,2023.2.2,92.80284602113461,
,,,,,,,,2904.26691621801,19,hands-57.jpg,pilotbb,1,vpnl,2024-01-23_10h30.06.189,alternatingbabyloc,2023.2.2,92.80284602113461,
,,,,,,,,2904.766400597,19,hands-58.jpg,pilotbb,1,vpnl,2024-01-23_10h30.06.189,alternatingbabyloc,2023.2.2,92.80284602113461,
,,,,,,,,2905.2661256320134,19,hands-59.jpg,pilotbb,1,vpnl,2024-01-23_10h30.06.189,alternatingbabyloc,2023.2.2,92.80284602113461,
,,,,,,,,2905.7659436620015,19,hands-60.jpg,pilotbb,1,vpnl,2024-01-23_10h30.06.189,alternatingbabyloc,2023.2.2,92.80284602113461,
,,,,,,,,2906.2665567020013,19,hands-61.jpg,pilotbb,1,vpnl,2024-01-23_10h30.06.189,alternatingbabyloc,2023.2.2,92.80284602113461,
,,,,,,,,2906.7666898379975,19,hands-62.jpg,pilotbb,1,vpnl,2024-01-23_10h30.06.189,alternatingbabyloc,2023.2.2,92.80284602113461,
,,,,,,,,2907.266941028007,19,hands-63.jpg,pilotbb,1,vpnl,2024-01-23_10h30.06.189,alternatingbabyloc,2023.2.2,92.80284602113461,
,,,,,,,,2907.766763799009,19,hands-64.jpg,pilotbb,1,vpnl,2024-01-23_10h30.06.189,alternatingbabyloc,2023.2.2,92.80284602113461,
,,,,,,,,2908.266895654,20,cars-57.jpg,pilotbb,1,vpnl,2024-01-23_10h30.06.189,alternatingbabyloc,2023.2.2,92.80284602113461,
,,,,,,,,2908.765739975992,20,cars-58.jpg,pilotbb,1,vpnl,2024-01-23_10h30.06.189,alternatingbabyloc,2023.2.2,92.80284602113461,
,,,,,,,,2909.2662549200177,20,cars-59.jpg,pilotbb,1,vpnl,2024-01-23_10h30.06.189,alternatingbabyloc,2023.2.2,92.80284602113461,
,,,,,,,,2909.7656430719944,20,cars-60.jpg,pilotbb,1,vpnl,2024-01-23_10h30.06.189,alternatingbabyloc,2023.2.2,92.80284602113461,
,,,,,,,,2910.2655464650015,20,cars-61.jpg,pilotbb,1,vpnl,2024-01-23_10h30.06.189,alternatingbabyloc,2023.2.2,92.80284602113461,
,,,,,,,,2910.766900621995,20,cars-62.jpg,pilotbb,1,vpnl,2024-01-23_10h30.06.189,alternatingbabyloc,2023.2.2,92.80284602113461,
,,,,,,,,2911.266844902013,20,cars-63.jpg,pilotbb,1,vpnl,2024-01-23_10h30.06.189,alternatingbabyloc,2023.2.2,92.80284602113461,
,,,,,,,,2911.766295383015,20,cars-64.jpg,pilotbb,1,vpnl,2024-01-23_10h30.06.189,alternatingbabyloc,2023.2.2,92.80284602113461,
,,,,,,,,2912.266806069005,21,faces-57.jpg,pilotbb,1,vpnl,2024-01-23_10h30.06.189,alternatingbabyloc,2023.2.2,92.80284602113461,
,,,,,,,,2912.7660196450015,21,faces-58.jpg,pilotbb,1,vpnl,2024-01-23_10h30.06.189,alternatingbabyloc,2023.2.2,92.80284602113461,
,,,,,,,,2913.265073023009,21,faces-59.jpg,pilotbb,1,vpnl,2024-01-23_10h30.06.189,alternatingbabyloc,2023.2.2,92.80284602113461,
,,,,,,,,2913.765521313995,21,faces-60.jpg,pilotbb,1,vpnl,2024-01-23_10h30.06.189,alternatingbabyloc,2023.2.2,92.80284602113461,
,,,,,,,,2914.2655276780133,21,faces-61.jpg,pilotbb,1,vpnl,2024-01-23_10h30.06.189,alternatingbabyloc,2023.2.2,92.80284602113461,
,,,,,,,,2914.7656074039987,21,faces-62.jpg,pilotbb,1,vpnl,2024-01-23_10h30.06.189,alternatingbabyloc,2023.2.2,92.80284602113461,
,,,,,,,,2915.2657265659946,21,faces-63.jpg,pilotbb,1,vpnl,2024-01-23_10h30.06.189,alternatingbabyloc,2023.2.2,92.80284602113461,
,,,,,,,,2915.7658496310178,21,faces-64.jpg,pilotbb,1,vpnl,2024-01-23_10h30.06.189,alternatingbabyloc,2023.2.2,92.80284602113461,
,,,,,,,,2916.266304687015,22,blank-73.jpg,pilotbb,1,vpnl,2024-01-23_10h30.06.189,alternatingbabyloc,2023.2.2,92.80284602113461,
,,,,,,,,2916.76644945101,22,blank-74.jpg,pilotbb,1,vpnl,2024-01-23_10h30.06.189,alternatingbabyloc,2023.2.2,92.80284602113461,
,,,,,,,,2917.2660567990097,22,blank-75.jpg,pilotbb,1,vpnl,2024-01-23_10h30.06.189,alternatingbabyloc,2023.2.2,92.80284602113461,
,,,,,,,,2917.7663075739983,22,blank-76.jpg,pilotbb,1,vpnl,2024-01-23_10h30.06.189,alternatingbabyloc,2023.2.2,92.80284602113461,
,,,,,,,,2918.265623589017,22,blank-77.jpg,pilotbb,1,vpnl,2024-01-23_10h30.06.189,alternatingbabyloc,2023.2.2,92.80284602113461,
,,,,,,,,2918.766589153005,22,blank-78.jpg,pilotbb,1,vpnl,2024-01-23_10h30.06.189,alternatingbabyloc,2023.2.2,92.80284602113461,
,,,,,,,,2919.266365385003,22,blank-79.jpg,pilotbb,1,vpnl,2024-01-23_10h30.06.189,alternatingbabyloc,2023.2.2,92.80284602113461,
,,,,,,,,2919.766368896002,22,blank-80.jpg,pilotbb,1,vpnl,2024-01-23_10h30.06.189,alternatingbabyloc,2023.2.2,92.80284602113461,
