thisRow.t,notes,waiting_for_trigger_text.started,trigger.started,trigger.keys,trigger.rt,countdown.started,trial.stopped,stimuli.started,condition,stim_name,stimuli.stopped,participant,run,user,date,expName,psychopyVersion,frameRate,
,,246.59076334899873,246.59076334899873,t,48.19770623499062,,,,,,,pilotbb,1,vpnl,2024-01-23_10h30.06.189,alternatingbabyloc,2023.2.2,92.80284602113461,
,,,,,,294.8262647440133,54.23637050599791,300.83026987101766,1,blank-1.jpg,,pilotbb,1,vpnl,2024-01-23_10h30.06.189,alternatingbabyloc,2023.2.2,92.80284602113461,
,,,,,,,,301.3307139230019,1,blank-2.jpg,,pilotbb,1,vpnl,2024-01-23_10h30.06.189,alternatingbabyloc,2023.2.2,92.80284602113461,
,,,,,,,,301.83104513501166,1,blank-3.jpg,,pilotbb,1,vpnl,2024-01-23_10h30.06.189,alternatingbabyloc,2023.2.2,92.80284602113461,
,,,,,,,,302.3309856230044,1,blank-4.jpg,,pilotbb,1,vpnl,2024-01-23_10h30.06.189,alternatingbabyloc,2023.2.2,92.80284602113461,
,,,,,,,,302.8303290269978,1,blank-5.jpg,,pilotbb,1,vpnl,2024-01-23_10h30.06.189,alternatingbabyloc,2023.2.2,92.80284602113461,
,,,,,,,,303.33059582998976,1,blank-6.jpg,,pilotbb,1,vpnl,2024-01-23_10h30.06.189,alternatingbabyloc,2023.2.2,92.80284602113461,
,,,,,,,,303.83093612999073,1,blank-7.jpg,,pilotbb,1,vpnl,2024-01-23_10h30.06.189,alternatingbabyloc,2023.2.2,92.80284602113461,
,,,,,,,,304.33089280399145,1,blank-8.jpg,,pilotbb,1,vpnl,2024-01-23_10h30.06.189,alternatingbabyloc,2023.2.2,92.80284602113461,
,,,,,,,,304.8304065479897,2,scenes-1.jpg,,pilotbb,1,vpnl,2024-01-23_10h30.06.189,alternatingbabyloc,2023.2.2,92.80284602113461,
,,,,,,,,305.3311968079943,2,scenes-2.jpg,,pilotbb,1,vpnl,2024-01-23_10h30.06.189,alternatingbabyloc,2023.2.2,92.80284602113461,
,,,,,,,,305.83089463599026,2,scenes-3.jpg,,pilotbb,1,vpnl,2024-01-23_10h30.06.189,alternatingbabyloc,2023.2.2,92.80284602113461,
,,,,,,,,306.3311318120104,2,scenes-4.jpg,,pilotbb,1,vpnl,2024-01-23_10h30.06.189,alternatingbabyloc,2023.2.2,92.80284602113461,
,,,,,,,,306.831684831006,2,scenes-5.jpg,,pilotbb,1,vpnl,2024-01-23_10h30.06.189,alternatingbabyloc,2023.2.2,92.80284602113461,
,,,,,,,,307.3309644020046,2,scenes-6.jpg,,pilotbb,1,vpnl,2024-01-23_10h30.06.189,alternatingbabyloc,2023.2.2,92.80284602113461,
,,,,,,,,307.8306445640046,2,scenes-7.jpg,,pilotbb,1,vpnl,2024-01-23_10h30.06.189,alternatingbabyloc,2023.2.2,92.80284602113461,
,,,,,,,,308.3320373129973,2,scenes-8.jpg,,pilotbb,1,vpnl,2024-01-23_10h30.06.189,alternatingbabyloc,2023.2.2,92.80284602113461,
,,,,,,,,308.8413996940071,3,faces-1.jpg,,pilotbb,1,vpnl,2024-01-23_10h30.06.189,alternatingbabyloc,2023.2.2,92.80284602113461,
,,,,,,,,309.3455333200109,3,faces-2.jpg,,pilotbb,1,vpnl,2024-01-23_10h30.06.189,alternatingbabyloc,2023.2.2,92.80284602113461,
,,,,,,,,309.84614558599424,3,faces-3.jpg,,pilotbb,1,vpnl,2024-01-23_10h30.06.189,alternatingbabyloc,2023.2.2,92.80284602113461,
,,,,,,,,310.34556154499296,3,faces-4.jpg,,pilotbb,1,vpnl,2024-01-23_10h30.06.189,alternatingbabyloc,2023.2.2,92.80284602113461,
,,,,,,,,310.8447437499999,3,faces-5.jpg,,pilotbb,1,vpnl,2024-01-23_10h30.06.189,alternatingbabyloc,2023.2.2,92.80284602113461,
,,,,,,,,311.3453919829917,3,faces-6.jpg,,pilotbb,1,vpnl,2024-01-23_10h30.06.189,alternatingbabyloc,2023.2.2,92.80284602113461,
,,,,,,,,311.8451244000171,3,faces-7.jpg,,pilotbb,1,vpnl,2024-01-23_10h30.06.189,alternatingbabyloc,2023.2.2,92.80284602113461,
,,,,,,,,312.3289560340054,3,faces-8.jpg,312.8281093419937,pilotbb,1,vpnl,2024-01-23_10h30.06.189,alternatingbabyloc,2023.2.2,92.80284602113461,
,,,,,,,,312.8281093419937,4,hands-1.jpg,313.3289110469923,pilotbb,1,vpnl,2024-01-23_10h30.06.189,alternatingbabyloc,2023.2.2,92.80284602113461,
,,,,,,,,313.3289110469923,4,hands-2.jpg,313.82802377300686,pilotbb,1,vpnl,2024-01-23_10h30.06.189,alternatingbabyloc,2023.2.2,92.80284602113461,
,,,,,,,,313.82802377300686,4,hands-3.jpg,314.3282202630071,pilotbb,1,vpnl,2024-01-23_10h30.06.189,alternatingbabyloc,2023.2.2,92.80284602113461,
,,,,,,,,314.3282202630071,4,hands-4.jpg,314.8280631270027,pilotbb,1,vpnl,2024-01-23_10h30.06.189,alternatingbabyloc,2023.2.2,92.80284602113461,
,,,,,,,,314.8280631270027,4,hands-5.jpg,315.3284831320052,pilotbb,1,vpnl,2024-01-23_10h30.06.189,alternatingbabyloc,2023.2.2,92.80284602113461,
,,,,,,,,315.3284831320052,4,hands-6.jpg,315.8279418339953,pilotbb,1,vpnl,2024-01-23_10h30.06.189,alternatingbabyloc,2023.2.2,92.80284602113461,
,,,,,,,,315.8279418339953,4,hands-7.jpg,316.3288786220073,pilotbb,1,vpnl,2024-01-23_10h30.06.189,alternatingbabyloc,2023.2.2,92.80284602113461,
,,,,,,,,316.3288786220073,4,hands-8.jpg,316.82810757801053,pilotbb,1,vpnl,2024-01-23_10h30.06.189,alternatingbabyloc,2023.2.2,92.80284602113461,
,,,,,,,,316.82810757801053,5,cars-1.jpg,317.3283838389907,pilotbb,1,vpnl,2024-01-23_10h30.06.189,alternatingbabyloc,2023.2.2,92.80284602113461,
,,,,,,,,317.3283838389907,5,cars-2.jpg,317.8279410949908,pilotbb,1,vpnl,2024-01-23_10h30.06.189,alternatingbabyloc,2023.2.2,92.80284602113461,
,,,,,,,,317.8279410949908,5,cars-3.jpg,318.3287120210007,pilotbb,1,vpnl,2024-01-23_10h30.06.189,alternatingbabyloc,2023.2.2,92.80284602113461,
,,,,,,,,318.3287120210007,5,cars-4.jpg,318.82799073899514,pilotbb,1,vpnl,2024-01-23_10h30.06.189,alternatingbabyloc,2023.2.2,92.80284602113461,
,,,,,,,,318.82799073899514,5,cars-5.jpg,319.3289910159947,pilotbb,1,vpnl,2024-01-23_10h30.06.189,alternatingbabyloc,2023.2.2,92.80284602113461,
,,,,,,,,319.3289910159947,5,cars-6.jpg,319.8279367189971,pilotbb,1,vpnl,2024-01-23_10h30.06.189,alternatingbabyloc,2023.2.2,92.80284602113461,
,,,,,,,,319.8279367189971,5,cars-7.jpg,320.32883302500704,pilotbb,1,vpnl,2024-01-23_10h30.06.189,alternatingbabyloc,2023.2.2,92.80284602113461,
,,,,,,,,320.32883302500704,5,cars-8.jpg,320.8281520860037,pilotbb,1,vpnl,2024-01-23_10h30.06.189,alternatingbabyloc,2023.2.2,92.80284602113461,
,,,,,,,,320.8281520860037,6,blank-9.jpg,321.3286546730087,pilotbb,1,vpnl,2024-01-23_10h30.06.189,alternatingbabyloc,2023.2.2,92.80284602113461,
,,,,,,,,321.3286546730087,6,blank-10.jpg,321.82799626199994,pilotbb,1,vpnl,2024-01-23_10h30.06.189,alternatingbabyloc,2023.2.2,92.80284602113461,
,,,,,,,,321.82799626199994,6,blank-11.jpg,322.3287422209978,pilotbb,1,vpnl,2024-01-23_10h30.06.189,alternatingbabyloc,2023.2.2,92.80284602113461,
,,,,,,,,322.3287422209978,6,blank-12.jpg,322.8281436850084,pilotbb,1,vpnl,2024-01-23_10h30.06.189,alternatingbabyloc,2023.2.2,92.80284602113461,
,,,,,,,,322.8281436850084,6,blank-13.jpg,323.32859087601537,pilotbb,1,vpnl,2024-01-23_10h30.06.189,alternatingbabyloc,2023.2.2,92.80284602113461,
,,,,,,,,323.32859087601537,6,blank-14.jpg,323.8279706070025,pilotbb,1,vpnl,2024-01-23_10h30.06.189,alternatingbabyloc,2023.2.2,92.80284602113461,
,,,,,,,,323.8279706070025,6,blank-15.jpg,324.3288490650011,pilotbb,1,vpnl,2024-01-23_10h30.06.189,alternatingbabyloc,2023.2.2,92.80284602113461,
,,,,,,,,324.3288490650011,6,blank-16.jpg,324.8280505610164,pilotbb,1,vpnl,2024-01-23_10h30.06.189,alternatingbabyloc,2023.2.2,92.80284602113461,
,,,,,,,,324.8280505610164,7,cars-9.jpg,325.3288657090161,pilotbb,1,vpnl,2024-01-23_10h30.06.189,alternatingbabyloc,2023.2.2,92.80284602113461,
,,,,,,,,325.3288657090161,7,cars-10.jpg,325.8279145680135,pilotbb,1,vpnl,2024-01-23_10h30.06.189,alternatingbabyloc,2023.2.2,92.80284602113461,
,,,,,,,,325.8279145680135,7,cars-11.jpg,326.3288803450123,pilotbb,1,vpnl,2024-01-23_10h30.06.189,alternatingbabyloc,2023.2.2,92.80284602113461,
,,,,,,,,326.3288803450123,7,cars-12.jpg,326.8280884879932,pilotbb,1,vpnl,2024-01-23_10h30.06.189,alternatingbabyloc,2023.2.2,92.80284602113461,
,,,,,,,,326.8280884879932,7,cars-13.jpg,327.32881107300636,pilotbb,1,vpnl,2024-01-23_10h30.06.189,alternatingbabyloc,2023.2.2,92.80284602113461,
,,,,,,,,327.32881107300636,7,cars-14.jpg,327.8279796949937,pilotbb,1,vpnl,2024-01-23_10h30.06.189,alternatingbabyloc,2023.2.2,92.80284602113461,
,,,,,,,,327.8279796949937,7,cars-15.jpg,328.32891426899005,pilotbb,1,vpnl,2024-01-23_10h30.06.189,alternatingbabyloc,2023.2.2,92.80284602113461,
,,,,,,,,328.32891426899005,7,cars-16.jpg,328.8279954030004,pilotbb,1,vpnl,2024-01-23_10h30.06.189,alternatingbabyloc,2023.2.2,92.80284602113461,
,,,,,,,,328.8279954030004,8,faces-9.jpg,329.328721347003,pilotbb,1,vpnl,2024-01-23_10h30.06.189,alternatingbabyloc,2023.2.2,92.80284602113461,
,,,,,,,,329.328721347003,8,faces-10.jpg,,pilotbb,1,vpnl,2024-01-23_10h30.06.189,alternatingbabyloc,2023.2.2,92.80284602113461,
,,,,,,,,329.8476933230122,8,faces-11.jpg,,pilotbb,1,vpnl,2024-01-23_10h30.06.189,alternatingbabyloc,2023.2.2,92.80284602113461,
,,,,,,,,330.34507405399927,8,faces-12.jpg,,pilotbb,1,vpnl,2024-01-23_10h30.06.189,alternatingbabyloc,2023.2.2,92.80284602113461,
,,,,,,,,330.84436834199005,8,faces-13.jpg,,pilotbb,1,vpnl,2024-01-23_10h30.06.189,alternatingbabyloc,2023.2.2,92.80284602113461,
,,,,,,,,331.3444276000082,8,faces-14.jpg,,pilotbb,1,vpnl,2024-01-23_10h30.06.189,alternatingbabyloc,2023.2.2,92.80284602113461,
,,,,,,,,331.8453554290172,8,faces-15.jpg,,pilotbb,1,vpnl,2024-01-23_10h30.06.189,alternatingbabyloc,2023.2.2,92.80284602113461,
,,,,,,,,332.3453521600168,8,faces-16.jpg,,pilotbb,1,vpnl,2024-01-23_10h30.06.189,alternatingbabyloc,2023.2.2,92.80284602113461,
,,,,,,,,332.8446036450041,9,scenes-9.jpg,,pilotbb,1,vpnl,2024-01-23_10h30.06.189,alternatingbabyloc,2023.2.2,92.80284602113461,
,,,,,,,,333.3448275850096,9,scenes-10.jpg,,pilotbb,1,vpnl,2024-01-23_10h30.06.189,alternatingbabyloc,2023.2.2,92.80284602113461,
,,,,,,,,333.84545335400617,9,scenes-11.jpg,,pilotbb,1,vpnl,2024-01-23_10h30.06.189,alternatingbabyloc,2023.2.2,92.80284602113461,
,,,,,,,,334.34514708499773,9,scenes-12.jpg,,pilotbb,1,vpnl,2024-01-23_10h30.06.189,alternatingbabyloc,2023.2.2,92.80284602113461,
,,,,,,,,334.84430210498977,9,scenes-13.jpg,,pilotbb,1,vpnl,2024-01-23_10h30.06.189,alternatingbabyloc,2023.2.2,92.80284602113461,
,,,,,,,,335.34444084900315,9,scenes-14.jpg,,pilotbb,1,vpnl,2024-01-23_10h30.06.189,alternatingbabyloc,2023.2.2,92.80284602113461,
,,,,,,,,335.84533272200497,9,scenes-15.jpg,,pilotbb,1,vpnl,2024-01-23_10h30.06.189,alternatingbabyloc,2023.2.2,92.80284602113461,
,,,,,,,,336.34508841400384,9,scenes-16.jpg,,pilotbb,1,vpnl,2024-01-23_10h30.06.189,alternatingbabyloc,2023.2.2,92.80284602113461,
,,,,,,,,336.8444967129908,10,blank-17.jpg,,pilotbb,1,vpnl,2024-01-23_10h30.06.189,alternatingbabyloc,2023.2.2,92.80284602113461,
,,,,,,,,337.3452955050161,10,blank-18.jpg,,pilotbb,1,vpnl,2024-01-23_10h30.06.189,alternatingbabyloc,2023.2.2,92.80284602113461,
,,,,,,,,337.84528206600226,10,blank-19.jpg,,pilotbb,1,vpnl,2024-01-23_10h30.06.189,alternatingbabyloc,2023.2.2,92.80284602113461,
,,,,,,,,338.34519780101255,10,blank-20.jpg,,pilotbb,1,vpnl,2024-01-23_10h30.06.189,alternatingbabyloc,2023.2.2,92.80284602113461,
,,,,,,,,338.84435982001014,10,blank-21.jpg,,pilotbb,1,vpnl,2024-01-23_10h30.06.189,alternatingbabyloc,2023.2.2,92.80284602113461,
,,,,,,,,339.34519658301724,10,blank-22.jpg,,pilotbb,1,vpnl,2024-01-23_10h30.06.189,alternatingbabyloc,2023.2.2,92.80284602113461,
,,,,,,,,339.8443518860149,10,blank-23.jpg,,pilotbb,1,vpnl,2024-01-23_10h30.06.189,alternatingbabyloc,2023.2.2,92.80284602113461,
,,,,,,,,340.34534575400176,10,blank-24.jpg,,pilotbb,1,vpnl,2024-01-23_10h30.06.189,alternatingbabyloc,2023.2.2,92.80284602113461,
,,,,,,,,340.84443101199577,11,hands-9.jpg,,pilotbb,1,vpnl,2024-01-23_10h30.06.189,alternatingbabyloc,2023.2.2,92.80284602113461,
,,,,,,,,341.3448780789913,11,hands-10.jpg,,pilotbb,1,vpnl,2024-01-23_10h30.06.189,alternatingbabyloc,2023.2.2,92.80284602113461,
,,,,,,,,341.8453270870086,11,hands-11.jpg,,pilotbb,1,vpnl,2024-01-23_10h30.06.189,alternatingbabyloc,2023.2.2,92.80284602113461,
,,,,,,,,342.345527899015,11,hands-12.jpg,,pilotbb,1,vpnl,2024-01-23_10h30.06.189,alternatingbabyloc,2023.2.2,92.80284602113461,
,,,,,,,,342.84429888700834,11,hands-13.jpg,,pilotbb,1,vpnl,2024-01-23_10h30.06.189,alternatingbabyloc,2023.2.2,92.80284602113461,
,,,,,,,,343.3451360000181,11,hands-14.jpg,,pilotbb,1,vpnl,2024-01-23_10h30.06.189,alternatingbabyloc,2023.2.2,92.80284602113461,
,,,,,,,,343.84451247000834,11,hands-15.jpg,,pilotbb,1,vpnl,2024-01-23_10h30.06.189,alternatingbabyloc,2023.2.2,92.80284602113461,
,,,,,,,,344.34492830801173,11,hands-16.jpg,,pilotbb,1,vpnl,2024-01-23_10h30.06.189,alternatingbabyloc,2023.2.2,92.80284602113461,
,,,,,,,,344.84437710401835,12,blank-25.jpg,,pilotbb,1,vpnl,2024-01-23_10h30.06.189,alternatingbabyloc,2023.2.2,92.80284602113461,
,,,,,,,,345.34503447500174,12,blank-26.jpg,,pilotbb,1,vpnl,2024-01-23_10h30.06.189,alternatingbabyloc,2023.2.2,92.80284602113461,
,,,,,,,,345.8443851020129,12,blank-27.jpg,,pilotbb,1,vpnl,2024-01-23_10h30.06.189,alternatingbabyloc,2023.2.2,92.80284602113461,
,,,,,,,,346.3450504479988,12,blank-28.jpg,,pilotbb,1,vpnl,2024-01-23_10h30.06.189,alternatingbabyloc,2023.2.2,92.80284602113461,
,,,,,,,,346.8441403369943,12,blank-29.jpg,,pilotbb,1,vpnl,2024-01-23_10h30.06.189,alternatingbabyloc,2023.2.2,92.80284602113461,
,,,,,,,,347.3452010740002,12,blank-30.jpg,,pilotbb,1,vpnl,2024-01-23_10h30.06.189,alternatingbabyloc,2023.2.2,92.80284602113461,
,,,,,,,,347.84524723599316,12,blank-31.jpg,,pilotbb,1,vpnl,2024-01-23_10h30.06.189,alternatingbabyloc,2023.2.2,92.80284602113461,
,,,,,,,,348.34514794001007,12,blank-32.jpg,,pilotbb,1,vpnl,2024-01-23_10h30.06.189,alternatingbabyloc,2023.2.2,92.80284602113461,
,,,,,,,,348.8442919910012,13,hands-17.jpg,,pilotbb,1,vpnl,2024-01-23_10h30.06.189,alternatingbabyloc,2023.2.2,92.80284602113461,
,,,,,,,,349.34454934101086,13,hands-18.jpg,,pilotbb,1,vpnl,2024-01-23_10h30.06.189,alternatingbabyloc,2023.2.2,92.80284602113461,
,,,,,,,,349.84507957901224,13,hands-19.jpg,,pilotbb,1,vpnl,2024-01-23_10h30.06.189,alternatingbabyloc,2023.2.2,92.80284602113461,
,,,,,,,,350.3447867729992,13,hands-20.jpg,,pilotbb,1,vpnl,2024-01-23_10h30.06.189,alternatingbabyloc,2023.2.2,92.80284602113461,
,,,,,,,,350.84399079100695,13,hands-21.jpg,,pilotbb,1,vpnl,2024-01-23_10h30.06.189,alternatingbabyloc,2023.2.2,92.80284602113461,
,,,,,,,,351.3450380680151,13,hands-22.jpg,,pilotbb,1,vpnl,2024-01-23_10h30.06.189,alternatingbabyloc,2023.2.2,92.80284602113461,
,,,,,,,,351.8448634069937,13,hands-23.jpg,,pilotbb,1,vpnl,2024-01-23_10h30.06.189,alternatingbabyloc,2023.2.2,92.80284602113461,
,,,,,,,,352.3449039540137,13,hands-24.jpg,,pilotbb,1,vpnl,2024-01-23_10h30.06.189,alternatingbabyloc,2023.2.2,92.80284602113461,
,,,,,,,,352.8441250320175,14,faces-17.jpg,,pilotbb,1,vpnl,2024-01-23_10h30.06.189,alternatingbabyloc,2023.2.2,92.80284602113461,
,,,,,,,,353.34468262200244,14,faces-18.jpg,,pilotbb,1,vpnl,2024-01-23_10h30.06.189,alternatingbabyloc,2023.2.2,92.80284602113461,
,,,,,,,,353.844758724008,14,faces-19.jpg,,pilotbb,1,vpnl,2024-01-23_10h30.06.189,alternatingbabyloc,2023.2.2,92.80284602113461,
,,,,,,,,354.3447713860078,14,faces-20.jpg,,pilotbb,1,vpnl,2024-01-23_10h30.06.189,alternatingbabyloc,2023.2.2,92.80284602113461,
,,,,,,,,354.844511917996,14,faces-21.jpg,,pilotbb,1,vpnl,2024-01-23_10h30.06.189,alternatingbabyloc,2023.2.2,92.80284602113461,
,,,,,,,,355.3450820080179,14,faces-22.jpg,,pilotbb,1,vpnl,2024-01-23_10h30.06.189,alternatingbabyloc,2023.2.2,92.80284602113461,
,,,,,,,,355.84528068700456,14,faces-23.jpg,,pilotbb,1,vpnl,2024-01-23_10h30.06.189,alternatingbabyloc,2023.2.2,92.80284602113461,
,,,,,,,,356.3447011279932,14,faces-24.jpg,,pilotbb,1,vpnl,2024-01-23_10h30.06.189,alternatingbabyloc,2023.2.2,92.80284602113461,
,,,,,,,,356.84422721801093,15,cars-17.jpg,,pilotbb,1,vpnl,2024-01-23_10h30.06.189,alternatingbabyloc,2023.2.2,92.80284602113461,
,,,,,,,,357.34503529200447,15,cars-18.jpg,,pilotbb,1,vpnl,2024-01-23_10h30.06.189,alternatingbabyloc,2023.2.2,92.80284602113461,
,,,,,,,,357.84507795301033,15,cars-19.jpg,,pilotbb,1,vpnl,2024-01-23_10h30.06.189,alternatingbabyloc,2023.2.2,92.80284602113461,
,,,,,,,,358.3448684850009,15,cars-20.jpg,,pilotbb,1,vpnl,2024-01-23_10h30.06.189,alternatingbabyloc,2023.2.2,92.80284602113461,
,,,,,,,,358.8439407130063,15,cars-21.jpg,,pilotbb,1,vpnl,2024-01-23_10h30.06.189,alternatingbabyloc,2023.2.2,92.80284602113461,
,,,,,,,,359.3444105340168,15,cars-22.jpg,,pilotbb,1,vpnl,2024-01-23_10h30.06.189,alternatingbabyloc,2023.2.2,92.80284602113461,
,,,,,,,,359.8446921959985,15,cars-23.jpg,,pilotbb,1,vpnl,2024-01-23_10h30.06.189,alternatingbabyloc,2023.2.2,92.80284602113461,
,,,,,,,,360.3444851410168,15,cars-24.jpg,,pilotbb,1,vpnl,2024-01-23_10h30.06.189,alternatingbabyloc,2023.2.2,92.80284602113461,
,,,,,,,,360.8442420650099,16,scenes-17.jpg,,pilotbb,1,vpnl,2024-01-23_10h30.06.189,alternatingbabyloc,2023.2.2,92.80284602113461,
,,,,,,,,361.3449324690155,16,scenes-18.jpg,,pilotbb,1,vpnl,2024-01-23_10h30.06.189,alternatingbabyloc,2023.2.2,92.80284602113461,
,,,,,,,,361.84496216499247,16,scenes-19.jpg,,pilotbb,1,vpnl,2024-01-23_10h30.06.189,alternatingbabyloc,2023.2.2,92.80284602113461,
,,,,,,,,362.3448546259897,16,scenes-20.jpg,,pilotbb,1,vpnl,2024-01-23_10h30.06.189,alternatingbabyloc,2023.2.2,92.80284602113461,
,,,,,,,,362.84391088501434,16,scenes-21.jpg,,pilotbb,1,vpnl,2024-01-23_10h30.06.189,alternatingbabyloc,2023.2.2,92.80284602113461,
,,,,,,,,363.3447986370011,16,scenes-22.jpg,,pilotbb,1,vpnl,2024-01-23_10h30.06.189,alternatingbabyloc,2023.2.2,92.80284602113461,
,,,,,,,,363.8448208750051,16,scenes-23.jpg,,pilotbb,1,vpnl,2024-01-23_10h30.06.189,alternatingbabyloc,2023.2.2,92.80284602113461,
,,,,,,,,364.3449757299968,16,scenes-24.jpg,,pilotbb,1,vpnl,2024-01-23_10h30.06.189,alternatingbabyloc,2023.2.2,92.80284602113461,
,,,,,,,,364.84397255899967,17,hands-25.jpg,,pilotbb,1,vpnl,2024-01-23_10h30.06.189,alternatingbabyloc,2023.2.2,92.80284602113461,
,,,,,,,,365.34503532599774,17,hands-26.jpg,,pilotbb,1,vpnl,2024-01-23_10h30.06.189,alternatingbabyloc,2023.2.2,92.80284602113461,
,,,,,,,,365.844950661005,17,hands-27.jpg,,pilotbb,1,vpnl,2024-01-23_10h30.06.189,alternatingbabyloc,2023.2.2,92.80284602113461,
,,,,,,,,366.34485227800906,17,hands-28.jpg,,pilotbb,1,vpnl,2024-01-23_10h30.06.189,alternatingbabyloc,2023.2.2,92.80284602113461,
,,,,,,,,366.8438647360017,17,hands-29.jpg,,pilotbb,1,vpnl,2024-01-23_10h30.06.189,alternatingbabyloc,2023.2.2,92.80284602113461,
,,,,,,,,367.3449773339962,17,hands-30.jpg,,pilotbb,1,vpnl,2024-01-23_10h30.06.189,alternatingbabyloc,2023.2.2,92.80284602113461,
,,,,,,,,367.8447527230019,17,hands-31.jpg,,pilotbb,1,vpnl,2024-01-23_10h30.06.189,alternatingbabyloc,2023.2.2,92.80284602113461,
,,,,,,,,368.34471994801424,17,hands-32.jpg,,pilotbb,1,vpnl,2024-01-23_10h30.06.189,alternatingbabyloc,2023.2.2,92.80284602113461,
,,,,,,,,368.8441070319968,18,blank-33.jpg,,pilotbb,1,vpnl,2024-01-23_10h30.06.189,alternatingbabyloc,2023.2.2,92.80284602113461,
,,,,,,,,369.3449634920107,18,blank-34.jpg,,pilotbb,1,vpnl,2024-01-23_10h30.06.189,alternatingbabyloc,2023.2.2,92.80284602113461,
,,,,,,,,369.84435876400676,18,blank-35.jpg,,pilotbb,1,vpnl,2024-01-23_10h30.06.189,alternatingbabyloc,2023.2.2,92.80284602113461,
,,,,,,,,370.34458665401326,18,blank-36.jpg,,pilotbb,1,vpnl,2024-01-23_10h30.06.189,alternatingbabyloc,2023.2.2,92.80284602113461,
,,,,,,,,370.8437264020031,18,blank-37.jpg,,pilotbb,1,vpnl,2024-01-23_10h30.06.189,alternatingbabyloc,2023.2.2,92.80284602113461,
,,,,,,,,371.3447887719958,18,blank-38.jpg,,pilotbb,1,vpnl,2024-01-23_10h30.06.189,alternatingbabyloc,2023.2.2,92.80284602113461,
,,,,,,,,371.8448170819902,18,blank-39.jpg,,pilotbb,1,vpnl,2024-01-23_10h30.06.189,alternatingbabyloc,2023.2.2,92.80284602113461,
,,,,,,,,372.3446147819923,18,blank-40.jpg,,pilotbb,1,vpnl,2024-01-23_10h30.06.189,alternatingbabyloc,2023.2.2,92.80284602113461,
,,,,,,,,372.843971557013,19,cars-25.jpg,,pilotbb,1,vpnl,2024-01-23_10h30.06.189,alternatingbabyloc,2023.2.2,92.80284602113461,
,,,,,,,,373.34384753298946,19,cars-26.jpg,,pilotbb,1,vpnl,2024-01-23_10h30.06.189,alternatingbabyloc,2023.2.2,92.80284602113461,
,,,,,,,,373.8445746919897,19,cars-27.jpg,,pilotbb,1,vpnl,2024-01-23_10h30.06.189,alternatingbabyloc,2023.2.2,92.80284602113461,
,,,,,,,,374.34465159801766,19,cars-28.jpg,,pilotbb,1,vpnl,2024-01-23_10h30.06.189,alternatingbabyloc,2023.2.2,92.80284602113461,
,,,,,,,,374.8439922030084,19,cars-29.jpg,,pilotbb,1,vpnl,2024-01-23_10h30.06.189,alternatingbabyloc,2023.2.2,92.80284602113461,
,,,,,,,,375.34471711100196,19,cars-30.jpg,,pilotbb,1,vpnl,2024-01-23_10h30.06.189,alternatingbabyloc,2023.2.2,92.80284602113461,
,,,,,,,,375.8446864729922,19,cars-31.jpg,,pilotbb,1,vpnl,2024-01-23_10h30.06.189,alternatingbabyloc,2023.2.2,92.80284602113461,
,,,,,,,,376.34447831101716,19,cars-32.jpg,,pilotbb,1,vpnl,2024-01-23_10h30.06.189,alternatingbabyloc,2023.2.2,92.80284602113461,
,,,,,,,,376.8438146520057,20,faces-25.jpg,,pilotbb,1,vpnl,2024-01-23_10h30.06.189,alternatingbabyloc,2023.2.2,92.80284602113461,
,,,,,,,,377.34462703199824,20,faces-26.jpg,,pilotbb,1,vpnl,2024-01-23_10h30.06.189,alternatingbabyloc,2023.2.2,92.80284602113461,
,,,,,,,,377.84465983501286,20,faces-27.jpg,,pilotbb,1,vpnl,2024-01-23_10h30.06.189,alternatingbabyloc,2023.2.2,92.80284602113461,
,,,,,,,,378.34459818000323,20,faces-28.jpg,,pilotbb,1,vpnl,2024-01-23_10h30.06.189,alternatingbabyloc,2023.2.2,92.80284602113461,
,,,,,,,,378.8437028810149,20,faces-29.jpg,,pilotbb,1,vpnl,2024-01-23_10h30.06.189,alternatingbabyloc,2023.2.2,92.80284602113461,
,,,,,,,,379.3433325900114,20,faces-30.jpg,,pilotbb,1,vpnl,2024-01-23_10h30.06.189,alternatingbabyloc,2023.2.2,92.80284602113461,
,,,,,,,,379.84478667000076,20,faces-31.jpg,,pilotbb,1,vpnl,2024-01-23_10h30.06.189,alternatingbabyloc,2023.2.2,92.80284602113461,
,,,,,,,,380.3441799360153,20,faces-32.jpg,,pilotbb,1,vpnl,2024-01-23_10h30.06.189,alternatingbabyloc,2023.2.2,92.80284602113461,
,,,,,,,,380.8437085270125,21,scenes-25.jpg,,pilotbb,1,vpnl,2024-01-23_10h30.06.189,alternatingbabyloc,2023.2.2,92.80284602113461,
,,,,,,,,381.34378593199654,21,scenes-26.jpg,,pilotbb,1,vpnl,2024-01-23_10h30.06.189,alternatingbabyloc,2023.2.2,92.80284602113461,
,,,,,,,,381.8438984169916,21,scenes-27.jpg,,pilotbb,1,vpnl,2024-01-23_10h30.06.189,alternatingbabyloc,2023.2.2,92.80284602113461,
,,,,,,,,382.34468037699116,21,scenes-28.jpg,,pilotbb,1,vpnl,2024-01-23_10h30.06.189,alternatingbabyloc,2023.2.2,92.80284602113461,
,,,,,,,,382.8438474230061,21,scenes-29.jpg,,pilotbb,1,vpnl,2024-01-23_10h30.06.189,alternatingbabyloc,2023.2.2,92.80284602113461,
,,,,,,,,383.34350507101044,21,scenes-30.jpg,,pilotbb,1,vpnl,2024-01-23_10h30.06.189,alternatingbabyloc,2023.2.2,92.80284602113461,
,,,,,,,,383.84478707399103,21,scenes-31.jpg,,pilotbb,1,vpnl,2024-01-23_10h30.06.189,alternatingbabyloc,2023.2.2,92.80284602113461,
,,,,,,,,384.34368479900877,21,scenes-32.jpg,,pilotbb,1,vpnl,2024-01-23_10h30.06.189,alternatingbabyloc,2023.2.2,92.80284602113461,
,,,,,,,,384.8435769180069,22,blank-41.jpg,,pilotbb,1,vpnl,2024-01-23_10h30.06.189,alternatingbabyloc,2023.2.2,92.80284602113461,
,,,,,,,,385.34414793600445,22,blank-42.jpg,,pilotbb,1,vpnl,2024-01-23_10h30.06.189,alternatingbabyloc,2023.2.2,92.80284602113461,
,,,,,,,,385.84366064699134,22,blank-43.jpg,,pilotbb,1,vpnl,2024-01-23_10h30.06.189,alternatingbabyloc,2023.2.2,92.80284602113461,
,,,,,,,,386.3437091720116,22,blank-44.jpg,,pilotbb,1,vpnl,2024-01-23_10h30.06.189,alternatingbabyloc,2023.2.2,92.80284602113461,
,,,,,,,,386.84368629101664,22,blank-45.jpg,,pilotbb,1,vpnl,2024-01-23_10h30.06.189,alternatingbabyloc,2023.2.2,92.80284602113461,
,,,,,,,,387.3444634200132,22,blank-46.jpg,,pilotbb,1,vpnl,2024-01-23_10h30.06.189,alternatingbabyloc,2023.2.2,92.80284602113461,
,,,,,,,,387.8441875060089,22,blank-47.jpg,,pilotbb,1,vpnl,2024-01-23_10h30.06.189,alternatingbabyloc,2023.2.2,92.80284602113461,
,,,,,,,,388.3434193439898,22,blank-48.jpg,,pilotbb,1,vpnl,2024-01-23_10h30.06.189,alternatingbabyloc,2023.2.2,92.80284602113461,
