thisRow.t,notes,waiting_for_trigger_text.started,trigger.started,trigger.keys,trigger.rt,countdown.started,countdown.stopped,trial.stopped,stimuli.started,condition,stim_name,stimuli.stopped,participant,run,user,date,expName,psychopyVersion,frameRate,
,,5810.986511839001,5810.986511839001,t,1498.4707338050066,,,,,,,,pilotbb,1,vpnl,2024-01-23_10h30.06.189,alternatingbabyloc,2023.2.2,92.80284602113461,
,,,,,,7309.4867748570105,7315.488377825008,1504.496883615997,7315.488377825008,1,blank-1.jpg,,pilotbb,1,vpnl,2024-01-23_10h30.06.189,alternatingbabyloc,2023.2.2,92.80284602113461,
,,,,,,,,,7316.004047169001,1,blank-2.jpg,,pilotbb,1,vpnl,2024-01-23_10h30.06.189,alternatingbabyloc,2023.2.2,92.80284602113461,
,,,,,,,,,7316.50352894899,1,blank-3.jpg,,pilotbb,1,vpnl,2024-01-23_10h30.06.189,alternatingbabyloc,2023.2.2,92.80284602113461,
,,,,,,,,,7317.002385661006,1,blank-4.jpg,,pilotbb,1,vpnl,2024-01-23_10h30.06.189,alternatingbabyloc,2023.2.2,92.80284602113461,
,,,,,,,,,7317.503102604009,1,blank-5.jpg,,pilotbb,1,vpnl,2024-01-23_10h30.06.189,alternatingbabyloc,2023.2.2,92.80284602113461,
,,,,,,,,,7318.003645285004,1,blank-6.jpg,,pilotbb,1,vpnl,2024-01-23_10h30.06.189,alternatingbabyloc,2023.2.2,92.80284602113461,
,,,,,,,,,7318.5036463860015,1,blank-7.jpg,,pilotbb,1,vpnl,2024-01-23_10h30.06.189,alternatingbabyloc,2023.2.2,92.80284602113461,
,,,,,,,,,7319.003655723005,1,blank-8.jpg,,pilotbb,1,vpnl,2024-01-23_10h30.06.189,alternatingbabyloc,2023.2.2,92.80284602113461,
,,,,,,,,,7319.503452992998,2,hands-1.jpg,,pilotbb,1,vpnl,2024-01-23_10h30.06.189,alternatingbabyloc,2023.2.2,92.80284602113461,
,,,,,,,,,7320.003330206004,2,hands-2.jpg,,pilotbb,1,vpnl,2024-01-23_10h30.06.189,alternatingbabyloc,2023.2.2,92.80284602113461,
,,,,,,,,,7320.502061213017,2,hands-3.jpg,,pilotbb,1,vpnl,2024-01-23_10h30.06.189,alternatingbabyloc,2023.2.2,92.80284602113461,
,,,,,,,,,7321.002028913994,2,hands-4.jpg,,pilotbb,1,vpnl,2024-01-23_10h30.06.189,alternatingbabyloc,2023.2.2,92.80284602113461,
,,,,,,,,,7321.503359090013,2,hands-5.jpg,,pilotbb,1,vpnl,2024-01-23_10h30.06.189,alternatingbabyloc,2023.2.2,92.80284602113461,
,,,,,,,,,7322.003344479017,2,hands-6.jpg,,pilotbb,1,vpnl,2024-01-23_10h30.06.189,alternatingbabyloc,2023.2.2,92.80284602113461,
,,,,,,,,,7322.502124851017,2,hands-7.jpg,,pilotbb,1,vpnl,2024-01-23_10h30.06.189,alternatingbabyloc,2023.2.2,92.80284602113461,
,,,,,,,,,7323.002091219008,2,hands-8.jpg,,pilotbb,1,vpnl,2024-01-23_10h30.06.189,alternatingbabyloc,2023.2.2,92.80284602113461,
,,,,,,,,,7323.503330397012,3,blank-9.jpg,,pilotbb,1,vpnl,2024-01-23_10h30.06.189,alternatingbabyloc,2023.2.2,92.80284602113461,
,,,,,,,,,7324.003091712017,3,blank-10.jpg,,pilotbb,1,vpnl,2024-01-23_10h30.06.189,alternatingbabyloc,2023.2.2,92.80284602113461,
,,,,,,,,,7324.502073796,3,blank-11.jpg,,pilotbb,1,vpnl,2024-01-23_10h30.06.189,alternatingbabyloc,2023.2.2,92.80284602113461,
,,,,,,,,,7325.0017630899965,3,blank-12.jpg,,pilotbb,1,vpnl,2024-01-23_10h30.06.189,alternatingbabyloc,2023.2.2,92.80284602113461,
,,,,,,,,,7325.502670745016,3,blank-13.jpg,,pilotbb,1,vpnl,2024-01-23_10h30.06.189,alternatingbabyloc,2023.2.2,92.80284602113461,
,,,,,,,,,7326.002836760017,3,blank-14.jpg,,pilotbb,1,vpnl,2024-01-23_10h30.06.189,alternatingbabyloc,2023.2.2,92.80284602113461,
,,,,,,,,,7326.50186511199,3,blank-15.jpg,,pilotbb,1,vpnl,2024-01-23_10h30.06.189,alternatingbabyloc,2023.2.2,92.80284602113461,
,,,,,,,,,7327.001808399014,3,blank-16.jpg,,pilotbb,1,vpnl,2024-01-23_10h30.06.189,alternatingbabyloc,2023.2.2,92.80284602113461,
,,,,,,,,,7327.501774550998,4,faces-1.jpg,,pilotbb,1,vpnl,2024-01-23_10h30.06.189,alternatingbabyloc,2023.2.2,92.80284602113461,
,,,,,,,,,7328.002854730992,4,faces-2.jpg,,pilotbb,1,vpnl,2024-01-23_10h30.06.189,alternatingbabyloc,2023.2.2,92.80284602113461,
,,,,,,,,,7328.501797509991,4,faces-3.jpg,,pilotbb,1,vpnl,2024-01-23_10h30.06.189,alternatingbabyloc,2023.2.2,92.80284602113461,
,,,,,,,,,7329.0025625370035,4,faces-4.jpg,,pilotbb,1,vpnl,2024-01-23_10h30.06.189,alternatingbabyloc,2023.2.2,92.80284602113461,
,,,,,,,,,7329.502994220995,4,faces-5.jpg,,pilotbb,1,vpnl,2024-01-23_10h30.06.189,alternatingbabyloc,2023.2.2,92.80284602113461,
,,,,,,,,,7330.004013365018,4,faces-6.jpg,,pilotbb,1,vpnl,2024-01-23_10h30.06.189,alternatingbabyloc,2023.2.2,92.80284602113461,
,,,,,,,,,7330.504027468007,4,faces-7.jpg,,pilotbb,1,vpnl,2024-01-23_10h30.06.189,alternatingbabyloc,2023.2.2,92.80284602113461,
,,,,,,,,,7331.0041148760065,4,faces-8.jpg,,pilotbb,1,vpnl,2024-01-23_10h30.06.189,alternatingbabyloc,2023.2.2,92.80284602113461,
,,,,,,,,,7331.517992150999,5,scenes-1.jpg,,pilotbb,1,vpnl,2024-01-23_10h30.06.189,alternatingbabyloc,2023.2.2,92.80284602113461,
,,,,,,,,,7332.004345299996,5,scenes-2.jpg,,pilotbb,1,vpnl,2024-01-23_10h30.06.189,alternatingbabyloc,2023.2.2,92.80284602113461,
,,,,,,,,,7332.486603497993,5,scenes-3.jpg,7332.985804582015,pilotbb,1,vpnl,2024-01-23_10h30.06.189,alternatingbabyloc,2023.2.2,92.80284602113461,
,,,,,,,,,7332.985804582015,5,scenes-4.jpg,7333.485902854009,pilotbb,1,vpnl,2024-01-23_10h30.06.189,alternatingbabyloc,2023.2.2,92.80284602113461,
,,,,,,,,,7333.485902854009,5,scenes-5.jpg,7333.986402526003,pilotbb,1,vpnl,2024-01-23_10h30.06.189,alternatingbabyloc,2023.2.2,92.80284602113461,
,,,,,,,,,7333.986402526003,5,scenes-6.jpg,7334.486240875005,pilotbb,1,vpnl,2024-01-23_10h30.06.189,alternatingbabyloc,2023.2.2,92.80284602113461,
,,,,,,,,,7334.486240875005,5,scenes-7.jpg,,pilotbb,1,vpnl,2024-01-23_10h30.06.189,alternatingbabyloc,2023.2.2,92.80284602113461,
,,,,,,,,,7334.985016085993,5,scenes-8.jpg,7335.486057214992,pilotbb,1,vpnl,2024-01-23_10h30.06.189,alternatingbabyloc,2023.2.2,92.80284602113461,
,,,,,,,,,7335.486057214992,6,cars-1.jpg,7335.986201690015,pilotbb,1,vpnl,2024-01-23_10h30.06.189,alternatingbabyloc,2023.2.2,92.80284602113461,
,,,,,,,,,7335.986201690015,6,cars-2.jpg,7336.486029338994,pilotbb,1,vpnl,2024-01-23_10h30.06.189,alternatingbabyloc,2023.2.2,92.80284602113461,
,,,,,,,,,7336.486029338994,6,cars-3.jpg,7336.985684525018,pilotbb,1,vpnl,2024-01-23_10h30.06.189,alternatingbabyloc,2023.2.2,92.80284602113461,
,,,,,,,,,7336.985684525018,6,cars-4.jpg,7337.487654163997,pilotbb,1,vpnl,2024-01-23_10h30.06.189,alternatingbabyloc,2023.2.2,92.80284602113461,
,,,,,,,,,7337.487654163997,6,cars-5.jpg,7337.987472430017,pilotbb,1,vpnl,2024-01-23_10h30.06.189,alternatingbabyloc,2023.2.2,92.80284602113461,
,,,,,,,,,7337.987472430017,6,cars-6.jpg,7338.485674173018,pilotbb,1,vpnl,2024-01-23_10h30.06.189,alternatingbabyloc,2023.2.2,92.80284602113461,
,,,,,,,,,7338.485674173018,6,cars-7.jpg,7338.98513572599,pilotbb,1,vpnl,2024-01-23_10h30.06.189,alternatingbabyloc,2023.2.2,92.80284602113461,
,,,,,,,,,7338.98513572599,6,cars-8.jpg,7339.484781097999,pilotbb,1,vpnl,2024-01-23_10h30.06.189,alternatingbabyloc,2023.2.2,92.80284602113461,
,,,,,,,,,7339.484781097999,7,hands-9.jpg,,pilotbb,1,vpnl,2024-01-23_10h30.06.189,alternatingbabyloc,2023.2.2,92.80284602113461,
,,,,,,,,,7339.996329000016,7,hands-10.jpg,,pilotbb,1,vpnl,2024-01-23_10h30.06.189,alternatingbabyloc,2023.2.2,92.80284602113461,
,,,,,,,,,7340.503963822004,7,hands-11.jpg,,pilotbb,1,vpnl,2024-01-23_10h30.06.189,alternatingbabyloc,2023.2.2,92.80284602113461,
,,,,,,,,,7341.003854073002,7,hands-12.jpg,,pilotbb,1,vpnl,2024-01-23_10h30.06.189,alternatingbabyloc,2023.2.2,92.80284602113461,
,,,,,,,,,7341.503721957008,7,hands-13.jpg,,pilotbb,1,vpnl,2024-01-23_10h30.06.189,alternatingbabyloc,2023.2.2,92.80284602113461,
,,,,,,,,,7342.004093073017,7,hands-14.jpg,,pilotbb,1,vpnl,2024-01-23_10h30.06.189,alternatingbabyloc,2023.2.2,92.80284602113461,
,,,,,,,,,7342.503330478008,7,hands-15.jpg,,pilotbb,1,vpnl,2024-01-23_10h30.06.189,alternatingbabyloc,2023.2.2,92.80284602113461,
,,,,,,,,,7343.004539955,7,hands-16.jpg,,pilotbb,1,vpnl,2024-01-23_10h30.06.189,alternatingbabyloc,2023.2.2,92.80284602113461,
,,,,,,,,,7343.503995598003,8,scenes-9.jpg,,pilotbb,1,vpnl,2024-01-23_10h30.06.189,alternatingbabyloc,2023.2.2,92.80284602113461,
,,,,,,,,,7344.003844627005,8,scenes-10.jpg,,pilotbb,1,vpnl,2024-01-23_10h30.06.189,alternatingbabyloc,2023.2.2,92.80284602113461,
,,,,,,,,,7344.503144471004,8,scenes-11.jpg,,pilotbb,1,vpnl,2024-01-23_10h30.06.189,alternatingbabyloc,2023.2.2,92.80284602113461,
,,,,,,,,,7345.00367923599,8,scenes-12.jpg,,pilotbb,1,vpnl,2024-01-23_10h30.06.189,alternatingbabyloc,2023.2.2,92.80284602113461,
,,,,,,,,,7345.503829191002,8,scenes-13.jpg,,pilotbb,1,vpnl,2024-01-23_10h30.06.189,alternatingbabyloc,2023.2.2,92.80284602113461,
,,,,,,,,,7346.003328866005,8,scenes-14.jpg,,pilotbb,1,vpnl,2024-01-23_10h30.06.189,alternatingbabyloc,2023.2.2,92.80284602113461,
,,,,,,,,,7346.502113340015,8,scenes-15.jpg,,pilotbb,1,vpnl,2024-01-23_10h30.06.189,alternatingbabyloc,2023.2.2,92.80284602113461,
,,,,,,,,,7347.001978487009,8,scenes-16.jpg,,pilotbb,1,vpnl,2024-01-23_10h30.06.189,alternatingbabyloc,2023.2.2,92.80284602113461,
,,,,,,,,,7347.502174180991,9,cars-9.jpg,,pilotbb,1,vpnl,2024-01-23_10h30.06.189,alternatingbabyloc,2023.2.2,92.80284602113461,
,,,,,,,,,7348.001555212017,9,cars-10.jpg,,pilotbb,1,vpnl,2024-01-23_10h30.06.189,alternatingbabyloc,2023.2.2,92.80284602113461,
,,,,,,,,,7348.502233878011,9,cars-11.jpg,,pilotbb,1,vpnl,2024-01-23_10h30.06.189,alternatingbabyloc,2023.2.2,92.80284602113461,
,,,,,,,,,7349.002059830003,9,cars-12.jpg,,pilotbb,1,vpnl,2024-01-23_10h30.06.189,alternatingbabyloc,2023.2.2,92.80284602113461,
,,,,,,,,,7349.502497390989,9,cars-13.jpg,,pilotbb,1,vpnl,2024-01-23_10h30.06.189,alternatingbabyloc,2023.2.2,92.80284602113461,
,,,,,,,,,7350.002733424015,9,cars-14.jpg,,pilotbb,1,vpnl,2024-01-23_10h30.06.189,alternatingbabyloc,2023.2.2,92.80284602113461,
,,,,,,,,,7350.501527645014,9,cars-15.jpg,,pilotbb,1,vpnl,2024-01-23_10h30.06.189,alternatingbabyloc,2023.2.2,92.80284602113461,
,,,,,,,,,7351.002068247995,9,cars-16.jpg,,pilotbb,1,vpnl,2024-01-23_10h30.06.189,alternatingbabyloc,2023.2.2,92.80284602113461,
,,,,,,,,,7351.502198442991,10,faces-9.jpg,,pilotbb,1,vpnl,2024-01-23_10h30.06.189,alternatingbabyloc,2023.2.2,92.80284602113461,
,,,,,,,,,7352.002061556006,10,faces-10.jpg,,pilotbb,1,vpnl,2024-01-23_10h30.06.189,alternatingbabyloc,2023.2.2,92.80284602113461,
,,,,,,,,,7352.502165325015,10,faces-11.jpg,,pilotbb,1,vpnl,2024-01-23_10h30.06.189,alternatingbabyloc,2023.2.2,92.80284602113461,
,,,,,,,,,7353.001788816007,10,faces-12.jpg,,pilotbb,1,vpnl,2024-01-23_10h30.06.189,alternatingbabyloc,2023.2.2,92.80284602113461,
,,,,,,,,,7353.502164498001,10,faces-13.jpg,,pilotbb,1,vpnl,2024-01-23_10h30.06.189,alternatingbabyloc,2023.2.2,92.80284602113461,
,,,,,,,,,7354.001736678998,10,faces-14.jpg,,pilotbb,1,vpnl,2024-01-23_10h30.06.189,alternatingbabyloc,2023.2.2,92.80284602113461,
,,,,,,,,,7354.501670619997,10,faces-15.jpg,,pilotbb,1,vpnl,2024-01-23_10h30.06.189,alternatingbabyloc,2023.2.2,92.80284602113461,
,,,,,,,,,7355.0018893259985,10,faces-16.jpg,,pilotbb,1,vpnl,2024-01-23_10h30.06.189,alternatingbabyloc,2023.2.2,92.80284602113461,
,,,,,,,,,7355.507926757011,11,blank-17.jpg,,pilotbb,1,vpnl,2024-01-23_10h30.06.189,alternatingbabyloc,2023.2.2,92.80284602113461,
,,,,,,,,,7356.0022081439965,11,blank-18.jpg,,pilotbb,1,vpnl,2024-01-23_10h30.06.189,alternatingbabyloc,2023.2.2,92.80284602113461,
,,,,,,,,,7356.501841738005,11,blank-19.jpg,,pilotbb,1,vpnl,2024-01-23_10h30.06.189,alternatingbabyloc,2023.2.2,92.80284602113461,
,,,,,,,,,7357.001955924003,11,blank-20.jpg,,pilotbb,1,vpnl,2024-01-23_10h30.06.189,alternatingbabyloc,2023.2.2,92.80284602113461,
,,,,,,,,,7357.501790158014,11,blank-21.jpg,,pilotbb,1,vpnl,2024-01-23_10h30.06.189,alternatingbabyloc,2023.2.2,92.80284602113461,
,,,,,,,,,7358.0021780639945,11,blank-22.jpg,,pilotbb,1,vpnl,2024-01-23_10h30.06.189,alternatingbabyloc,2023.2.2,92.80284602113461,
,,,,,,,,,7358.501983413997,11,blank-23.jpg,,pilotbb,1,vpnl,2024-01-23_10h30.06.189,alternatingbabyloc,2023.2.2,92.80284602113461,
,,,,,,,,,7359.003847893007,11,blank-24.jpg,,pilotbb,1,vpnl,2024-01-23_10h30.06.189,alternatingbabyloc,2023.2.2,92.80284602113461,
,,,,,,,,,7359.502269385004,12,faces-17.jpg,,pilotbb,1,vpnl,2024-01-23_10h30.06.189,alternatingbabyloc,2023.2.2,92.80284602113461,
,,,,,,,,,7360.002114909003,12,faces-18.jpg,,pilotbb,1,vpnl,2024-01-23_10h30.06.189,alternatingbabyloc,2023.2.2,92.80284602113461,
,,,,,,,,,7360.501876404014,12,faces-19.jpg,,pilotbb,1,vpnl,2024-01-23_10h30.06.189,alternatingbabyloc,2023.2.2,92.80284602113461,
,,,,,,,,,7361.002003069007,12,faces-20.jpg,,pilotbb,1,vpnl,2024-01-23_10h30.06.189,alternatingbabyloc,2023.2.2,92.80284602113461,
,,,,,,,,,7361.501911033003,12,faces-21.jpg,,pilotbb,1,vpnl,2024-01-23_10h30.06.189,alternatingbabyloc,2023.2.2,92.80284602113461,
,,,,,,,,,7362.0021195090085,12,faces-22.jpg,,pilotbb,1,vpnl,2024-01-23_10h30.06.189,alternatingbabyloc,2023.2.2,92.80284602113461,
,,,,,,,,,7362.502265014016,12,faces-23.jpg,,pilotbb,1,vpnl,2024-01-23_10h30.06.189,alternatingbabyloc,2023.2.2,92.80284602113461,
,,,,,,,,,7363.003598309006,12,faces-24.jpg,,pilotbb,1,vpnl,2024-01-23_10h30.06.189,alternatingbabyloc,2023.2.2,92.80284602113461,
,,,,,,,,,7363.50325748499,13,scenes-17.jpg,,pilotbb,1,vpnl,2024-01-23_10h30.06.189,alternatingbabyloc,2023.2.2,92.80284602113461,
,,,,,,,,,7364.003098845016,13,scenes-18.jpg,,pilotbb,1,vpnl,2024-01-23_10h30.06.189,alternatingbabyloc,2023.2.2,92.80284602113461,
,,,,,,,,,7364.5044884009985,13,scenes-19.jpg,,pilotbb,1,vpnl,2024-01-23_10h30.06.189,alternatingbabyloc,2023.2.2,92.80284602113461,
,,,,,,,,,7365.003869576991,13,scenes-20.jpg,,pilotbb,1,vpnl,2024-01-23_10h30.06.189,alternatingbabyloc,2023.2.2,92.80284602113461,
,,,,,,,,,7365.504666132008,13,scenes-21.jpg,,pilotbb,1,vpnl,2024-01-23_10h30.06.189,alternatingbabyloc,2023.2.2,92.80284602113461,
,,,,,,,,,7366.003602559009,13,scenes-22.jpg,,pilotbb,1,vpnl,2024-01-23_10h30.06.189,alternatingbabyloc,2023.2.2,92.80284602113461,
,,,,,,,,,7366.502877221996,13,scenes-23.jpg,,pilotbb,1,vpnl,2024-01-23_10h30.06.189,alternatingbabyloc,2023.2.2,92.80284602113461,
,,,,,,,,,7367.002959113015,13,scenes-24.jpg,,pilotbb,1,vpnl,2024-01-23_10h30.06.189,alternatingbabyloc,2023.2.2,92.80284602113461,
,,,,,,,,,7367.502826932003,14,cars-17.jpg,,pilotbb,1,vpnl,2024-01-23_10h30.06.189,alternatingbabyloc,2023.2.2,92.80284602113461,
,,,,,,,,,7368.003199736006,14,cars-18.jpg,,pilotbb,1,vpnl,2024-01-23_10h30.06.189,alternatingbabyloc,2023.2.2,92.80284602113461,
,,,,,,,,,7368.491140441998,14,cars-19.jpg,,pilotbb,1,vpnl,2024-01-23_10h30.06.189,alternatingbabyloc,2023.2.2,92.80284602113461,
,,,,,,,,,7369.003877078008,14,cars-20.jpg,,pilotbb,1,vpnl,2024-01-23_10h30.06.189,alternatingbabyloc,2023.2.2,92.80284602113461,
,,,,,,,,,7369.504446050996,14,cars-21.jpg,,pilotbb,1,vpnl,2024-01-23_10h30.06.189,alternatingbabyloc,2023.2.2,92.80284602113461,
,,,,,,,,,7370.003808342008,14,cars-22.jpg,,pilotbb,1,vpnl,2024-01-23_10h30.06.189,alternatingbabyloc,2023.2.2,92.80284602113461,
,,,,,,,,,7370.504005160998,14,cars-23.jpg,,pilotbb,1,vpnl,2024-01-23_10h30.06.189,alternatingbabyloc,2023.2.2,92.80284602113461,
,,,,,,,,,7371.004146404011,14,cars-24.jpg,,pilotbb,1,vpnl,2024-01-23_10h30.06.189,alternatingbabyloc,2023.2.2,92.80284602113461,
,,,,,,,,,7371.504010606004,15,blank-25.jpg,,pilotbb,1,vpnl,2024-01-23_10h30.06.189,alternatingbabyloc,2023.2.2,92.80284602113461,
,,,,,,,,,7372.004965619009,15,blank-26.jpg,,pilotbb,1,vpnl,2024-01-23_10h30.06.189,alternatingbabyloc,2023.2.2,92.80284602113461,
,,,,,,,,,7372.504715307994,15,blank-27.jpg,,pilotbb,1,vpnl,2024-01-23_10h30.06.189,alternatingbabyloc,2023.2.2,92.80284602113461,
,,,,,,,,,7373.003321193013,15,blank-28.jpg,,pilotbb,1,vpnl,2024-01-23_10h30.06.189,alternatingbabyloc,2023.2.2,92.80284602113461,
,,,,,,,,,7373.503976534004,15,blank-29.jpg,,pilotbb,1,vpnl,2024-01-23_10h30.06.189,alternatingbabyloc,2023.2.2,92.80284602113461,
,,,,,,,,,7374.004159014992,15,blank-30.jpg,,pilotbb,1,vpnl,2024-01-23_10h30.06.189,alternatingbabyloc,2023.2.2,92.80284602113461,
,,,,,,,,,7374.503939348011,15,blank-31.jpg,,pilotbb,1,vpnl,2024-01-23_10h30.06.189,alternatingbabyloc,2023.2.2,92.80284602113461,
,,,,,,,,,7375.003855863004,15,blank-32.jpg,,pilotbb,1,vpnl,2024-01-23_10h30.06.189,alternatingbabyloc,2023.2.2,92.80284602113461,
,,,,,,,,,7375.504524502001,16,hands-17.jpg,,pilotbb,1,vpnl,2024-01-23_10h30.06.189,alternatingbabyloc,2023.2.2,92.80284602113461,
,,,,,,,,,7376.004014278995,16,hands-18.jpg,,pilotbb,1,vpnl,2024-01-23_10h30.06.189,alternatingbabyloc,2023.2.2,92.80284602113461,
,,,,,,,,,7376.505620073003,16,hands-19.jpg,,pilotbb,1,vpnl,2024-01-23_10h30.06.189,alternatingbabyloc,2023.2.2,92.80284602113461,
,,,,,,,,,7377.005578790995,16,hands-20.jpg,,pilotbb,1,vpnl,2024-01-23_10h30.06.189,alternatingbabyloc,2023.2.2,92.80284602113461,
,,,,,,,,,7377.504025908012,16,hands-21.jpg,,pilotbb,1,vpnl,2024-01-23_10h30.06.189,alternatingbabyloc,2023.2.2,92.80284602113461,
,,,,,,,,,7378.003877056995,16,hands-22.jpg,,pilotbb,1,vpnl,2024-01-23_10h30.06.189,alternatingbabyloc,2023.2.2,92.80284602113461,
,,,,,,,,,7378.504002942995,16,hands-23.jpg,,pilotbb,1,vpnl,2024-01-23_10h30.06.189,alternatingbabyloc,2023.2.2,92.80284602113461,
,,,,,,,,,7379.005648707011,16,hands-24.jpg,,pilotbb,1,vpnl,2024-01-23_10h30.06.189,alternatingbabyloc,2023.2.2,92.80284602113461,
,,,,,,,,,7379.502412356,17,scenes-25.jpg,,pilotbb,1,vpnl,2024-01-23_10h30.06.189,alternatingbabyloc,2023.2.2,92.80284602113461,
,,,,,,,,,7380.00251574401,17,scenes-26.jpg,,pilotbb,1,vpnl,2024-01-23_10h30.06.189,alternatingbabyloc,2023.2.2,92.80284602113461,
,,,,,,,,,7380.503312848014,17,scenes-27.jpg,,pilotbb,1,vpnl,2024-01-23_10h30.06.189,alternatingbabyloc,2023.2.2,92.80284602113461,
,,,,,,,,,7381.002730728011,17,scenes-28.jpg,,pilotbb,1,vpnl,2024-01-23_10h30.06.189,alternatingbabyloc,2023.2.2,92.80284602113461,
,,,,,,,,,7381.502680656995,17,scenes-29.jpg,,pilotbb,1,vpnl,2024-01-23_10h30.06.189,alternatingbabyloc,2023.2.2,92.80284602113461,
,,,,,,,,,7382.002249451994,17,scenes-30.jpg,,pilotbb,1,vpnl,2024-01-23_10h30.06.189,alternatingbabyloc,2023.2.2,92.80284602113461,
,,,,,,,,,7382.500917174999,17,scenes-31.jpg,,pilotbb,1,vpnl,2024-01-23_10h30.06.189,alternatingbabyloc,2023.2.2,92.80284602113461,
,,,,,,,,,7383.002513971995,17,scenes-32.jpg,,pilotbb,1,vpnl,2024-01-23_10h30.06.189,alternatingbabyloc,2023.2.2,92.80284602113461,
,,,,,,,,,7383.502380527003,18,cars-25.jpg,,pilotbb,1,vpnl,2024-01-23_10h30.06.189,alternatingbabyloc,2023.2.2,92.80284602113461,
,,,,,,,,,7384.003089263017,18,cars-26.jpg,,pilotbb,1,vpnl,2024-01-23_10h30.06.189,alternatingbabyloc,2023.2.2,92.80284602113461,
,,,,,,,,,7384.502088095003,18,cars-27.jpg,,pilotbb,1,vpnl,2024-01-23_10h30.06.189,alternatingbabyloc,2023.2.2,92.80284602113461,
,,,,,,,,,7385.002568055992,18,cars-28.jpg,,pilotbb,1,vpnl,2024-01-23_10h30.06.189,alternatingbabyloc,2023.2.2,92.80284602113461,
,,,,,,,,,7385.502675971016,18,cars-29.jpg,,pilotbb,1,vpnl,2024-01-23_10h30.06.189,alternatingbabyloc,2023.2.2,92.80284602113461,
,,,,,,,,,7386.00217777901,18,cars-30.jpg,,pilotbb,1,vpnl,2024-01-23_10h30.06.189,alternatingbabyloc,2023.2.2,92.80284602113461,
,,,,,,,,,7386.503320207994,18,cars-31.jpg,,pilotbb,1,vpnl,2024-01-23_10h30.06.189,alternatingbabyloc,2023.2.2,92.80284602113461,
,,,,,,,,,7387.00203475001,18,cars-32.jpg,,pilotbb,1,vpnl,2024-01-23_10h30.06.189,alternatingbabyloc,2023.2.2,92.80284602113461,
,,,,,,,,,7387.502804198011,19,blank-33.jpg,,pilotbb,1,vpnl,2024-01-23_10h30.06.189,alternatingbabyloc,2023.2.2,92.80284602113461,
,,,,,,,,,7388.002899654995,19,blank-34.jpg,,pilotbb,1,vpnl,2024-01-23_10h30.06.189,alternatingbabyloc,2023.2.2,92.80284602113461,
,,,,,,,,,7388.502563841001,19,blank-35.jpg,,pilotbb,1,vpnl,2024-01-23_10h30.06.189,alternatingbabyloc,2023.2.2,92.80284602113461,
,,,,,,,,,7389.002340567007,19,blank-36.jpg,,pilotbb,1,vpnl,2024-01-23_10h30.06.189,alternatingbabyloc,2023.2.2,92.80284602113461,
,,,,,,,,,7389.502764887002,19,blank-37.jpg,,pilotbb,1,vpnl,2024-01-23_10h30.06.189,alternatingbabyloc,2023.2.2,92.80284602113461,
,,,,,,,,,7390.001956480992,19,blank-38.jpg,,pilotbb,1,vpnl,2024-01-23_10h30.06.189,alternatingbabyloc,2023.2.2,92.80284602113461,
,,,,,,,,,7390.502202466014,19,blank-39.jpg,,pilotbb,1,vpnl,2024-01-23_10h30.06.189,alternatingbabyloc,2023.2.2,92.80284602113461,
,,,,,,,,,7391.002967305016,19,blank-40.jpg,,pilotbb,1,vpnl,2024-01-23_10h30.06.189,alternatingbabyloc,2023.2.2,92.80284602113461,
,,,,,,,,,7391.502007196017,20,faces-25.jpg,,pilotbb,1,vpnl,2024-01-23_10h30.06.189,alternatingbabyloc,2023.2.2,92.80284602113461,
,,,,,,,,,7392.002007770003,20,faces-26.jpg,,pilotbb,1,vpnl,2024-01-23_10h30.06.189,alternatingbabyloc,2023.2.2,92.80284602113461,
,,,,,,,,,7392.502469408006,20,faces-27.jpg,,pilotbb,1,vpnl,2024-01-23_10h30.06.189,alternatingbabyloc,2023.2.2,92.80284602113461,
,,,,,,,,,7393.002279750013,20,faces-28.jpg,,pilotbb,1,vpnl,2024-01-23_10h30.06.189,alternatingbabyloc,2023.2.2,92.80284602113461,
,,,,,,,,,7393.505361412012,20,faces-29.jpg,,pilotbb,1,vpnl,2024-01-23_10h30.06.189,alternatingbabyloc,2023.2.2,92.80284602113461,
,,,,,,,,,7394.0026140550035,20,faces-30.jpg,,pilotbb,1,vpnl,2024-01-23_10h30.06.189,alternatingbabyloc,2023.2.2,92.80284602113461,
,,,,,,,,,7394.501832248003,20,faces-31.jpg,,pilotbb,1,vpnl,2024-01-23_10h30.06.189,alternatingbabyloc,2023.2.2,92.80284602113461,
,,,,,,,,,7395.002641174011,20,faces-32.jpg,,pilotbb,1,vpnl,2024-01-23_10h30.06.189,alternatingbabyloc,2023.2.2,92.80284602113461,
,,,,,,,,,7395.502912422002,21,hands-25.jpg,,pilotbb,1,vpnl,2024-01-23_10h30.06.189,alternatingbabyloc,2023.2.2,92.80284602113461,
,,,,,,,,,7396.003505686007,21,hands-26.jpg,,pilotbb,1,vpnl,2024-01-23_10h30.06.189,alternatingbabyloc,2023.2.2,92.80284602113461,
,,,,,,,,,7396.503815085016,21,hands-27.jpg,,pilotbb,1,vpnl,2024-01-23_10h30.06.189,alternatingbabyloc,2023.2.2,92.80284602113461,
,,,,,,,,,7397.003307959996,21,hands-28.jpg,,pilotbb,1,vpnl,2024-01-23_10h30.06.189,alternatingbabyloc,2023.2.2,92.80284602113461,
,,,,,,,,,7397.503950128012,21,hands-29.jpg,,pilotbb,1,vpnl,2024-01-23_10h30.06.189,alternatingbabyloc,2023.2.2,92.80284602113461,
,,,,,,,,,7398.006058914994,21,hands-30.jpg,,pilotbb,1,vpnl,2024-01-23_10h30.06.189,alternatingbabyloc,2023.2.2,92.80284602113461,
,,,,,,,,,7398.504163550999,21,hands-31.jpg,,pilotbb,1,vpnl,2024-01-23_10h30.06.189,alternatingbabyloc,2023.2.2,92.80284602113461,
,,,,,,,,,7399.003066992009,21,hands-32.jpg,,pilotbb,1,vpnl,2024-01-23_10h30.06.189,alternatingbabyloc,2023.2.2,92.80284602113461,
,,,,,,,,,7399.50432793799,22,blank-41.jpg,,pilotbb,1,vpnl,2024-01-23_10h30.06.189,alternatingbabyloc,2023.2.2,92.80284602113461,
,,,,,,,,,7400.003975666012,22,blank-42.jpg,,pilotbb,1,vpnl,2024-01-23_10h30.06.189,alternatingbabyloc,2023.2.2,92.80284602113461,
,,,,,,,,,7400.503653801017,22,blank-43.jpg,,pilotbb,1,vpnl,2024-01-23_10h30.06.189,alternatingbabyloc,2023.2.2,92.80284602113461,
,,,,,,,,,7401.004429502995,22,blank-44.jpg,,pilotbb,1,vpnl,2024-01-23_10h30.06.189,alternatingbabyloc,2023.2.2,92.80284602113461,
,,,,,,,,,7401.503660410002,22,blank-45.jpg,,pilotbb,1,vpnl,2024-01-23_10h30.06.189,alternatingbabyloc,2023.2.2,92.80284602113461,
,,,,,,,,,7402.003761602013,22,blank-46.jpg,,pilotbb,1,vpnl,2024-01-23_10h30.06.189,alternatingbabyloc,2023.2.2,92.80284602113461,
,,,,,,,,,7402.503943909018,22,blank-47.jpg,,pilotbb,1,vpnl,2024-01-23_10h30.06.189,alternatingbabyloc,2023.2.2,92.80284602113461,
,,,,,,,,,7403.003524436004,22,blank-48.jpg,,pilotbb,1,vpnl,2024-01-23_10h30.06.189,alternatingbabyloc,2023.2.2,92.80284602113461,
,,,,,,,,,7403.502571198012,23,faces-33.jpg,,pilotbb,1,vpnl,2024-01-23_10h30.06.189,alternatingbabyloc,2023.2.2,92.80284602113461,
,,,,,,,,,7404.004149888991,23,faces-34.jpg,,pilotbb,1,vpnl,2024-01-23_10h30.06.189,alternatingbabyloc,2023.2.2,92.80284602113461,
,,,,,,,,,7404.503385990014,23,faces-35.jpg,,pilotbb,1,vpnl,2024-01-23_10h30.06.189,alternatingbabyloc,2023.2.2,92.80284602113461,
,,,,,,,,,7405.003874995018,23,faces-36.jpg,,pilotbb,1,vpnl,2024-01-23_10h30.06.189,alternatingbabyloc,2023.2.2,92.80284602113461,
,,,,,,,,,7405.504309036012,23,faces-37.jpg,,pilotbb,1,vpnl,2024-01-23_10h30.06.189,alternatingbabyloc,2023.2.2,92.80284602113461,
,,,,,,,,,7406.004184273013,23,faces-38.jpg,,pilotbb,1,vpnl,2024-01-23_10h30.06.189,alternatingbabyloc,2023.2.2,92.80284602113461,
,,,,,,,,,7406.503832834016,23,faces-39.jpg,,pilotbb,1,vpnl,2024-01-23_10h30.06.189,alternatingbabyloc,2023.2.2,92.80284602113461,
,,,,,,,,,7407.003528850997,23,faces-40.jpg,,pilotbb,1,vpnl,2024-01-23_10h30.06.189,alternatingbabyloc,2023.2.2,92.80284602113461,
,,,,,,,,,7407.503751284996,24,cars-33.jpg,,pilotbb,1,vpnl,2024-01-23_10h30.06.189,alternatingbabyloc,2023.2.2,92.80284602113461,
,,,,,,,,,7408.003799885017,24,cars-34.jpg,,pilotbb,1,vpnl,2024-01-23_10h30.06.189,alternatingbabyloc,2023.2.2,92.80284602113461,
,,,,,,,,,7408.5041097349895,24,cars-35.jpg,,pilotbb,1,vpnl,2024-01-23_10h30.06.189,alternatingbabyloc,2023.2.2,92.80284602113461,
,,,,,,,,,7409.003430065,24,cars-36.jpg,,pilotbb,1,vpnl,2024-01-23_10h30.06.189,alternatingbabyloc,2023.2.2,92.80284602113461,
,,,,,,,,,7409.503976061009,24,cars-37.jpg,,pilotbb,1,vpnl,2024-01-23_10h30.06.189,alternatingbabyloc,2023.2.2,92.80284602113461,
,,,,,,,,,7410.003571450012,24,cars-38.jpg,,pilotbb,1,vpnl,2024-01-23_10h30.06.189,alternatingbabyloc,2023.2.2,92.80284602113461,
,,,,,,,,,7410.503532442992,24,cars-39.jpg,,pilotbb,1,vpnl,2024-01-23_10h30.06.189,alternatingbabyloc,2023.2.2,92.80284602113461,
,,,,,,,,,7411.003321140015,24,cars-40.jpg,,pilotbb,1,vpnl,2024-01-23_10h30.06.189,alternatingbabyloc,2023.2.2,92.80284602113461,
,,,,,,,,,7411.503362529998,25,hands-33.jpg,,pilotbb,1,vpnl,2024-01-23_10h30.06.189,alternatingbabyloc,2023.2.2,92.80284602113461,
,,,,,,,,,7412.001482543012,25,hands-34.jpg,,pilotbb,1,vpnl,2024-01-23_10h30.06.189,alternatingbabyloc,2023.2.2,92.80284602113461,
,,,,,,,,,7412.501842566999,25,hands-35.jpg,,pilotbb,1,vpnl,2024-01-23_10h30.06.189,alternatingbabyloc,2023.2.2,92.80284602113461,
,,,,,,,,,7413.002219204005,25,hands-36.jpg,,pilotbb,1,vpnl,2024-01-23_10h30.06.189,alternatingbabyloc,2023.2.2,92.80284602113461,
,,,,,,,,,7413.501538939017,25,hands-37.jpg,,pilotbb,1,vpnl,2024-01-23_10h30.06.189,alternatingbabyloc,2023.2.2,92.80284602113461,
,,,,,,,,,7414.001565048995,25,hands-38.jpg,,pilotbb,1,vpnl,2024-01-23_10h30.06.189,alternatingbabyloc,2023.2.2,92.80284602113461,
,,,,,,,,,7414.502073715994,25,hands-39.jpg,,pilotbb,1,vpnl,2024-01-23_10h30.06.189,alternatingbabyloc,2023.2.2,92.80284602113461,
,,,,,,,,,7415.001739795,25,hands-40.jpg,,pilotbb,1,vpnl,2024-01-23_10h30.06.189,alternatingbabyloc,2023.2.2,92.80284602113461,
,,,,,,,,,7415.501662073017,26,scenes-33.jpg,,pilotbb,1,vpnl,2024-01-23_10h30.06.189,alternatingbabyloc,2023.2.2,92.80284602113461,
,,,,,,,,,7416.001422358997,26,scenes-34.jpg,,pilotbb,1,vpnl,2024-01-23_10h30.06.189,alternatingbabyloc,2023.2.2,92.80284602113461,
,,,,,,,,,7416.5039797619975,26,scenes-35.jpg,,pilotbb,1,vpnl,2024-01-23_10h30.06.189,alternatingbabyloc,2023.2.2,92.80284602113461,
,,,,,,,,,7417.003867373016,26,scenes-36.jpg,,pilotbb,1,vpnl,2024-01-23_10h30.06.189,alternatingbabyloc,2023.2.2,92.80284602113461,
,,,,,,,,,7417.502312825993,26,scenes-37.jpg,,pilotbb,1,vpnl,2024-01-23_10h30.06.189,alternatingbabyloc,2023.2.2,92.80284602113461,
,,,,,,,,,7418.00226798901,26,scenes-38.jpg,,pilotbb,1,vpnl,2024-01-23_10h30.06.189,alternatingbabyloc,2023.2.2,92.80284602113461,
,,,,,,,,,7418.50199512401,26,scenes-39.jpg,,pilotbb,1,vpnl,2024-01-23_10h30.06.189,alternatingbabyloc,2023.2.2,92.80284602113461,
,,,,,,,,,7419.001893706998,26,scenes-40.jpg,,pilotbb,1,vpnl,2024-01-23_10h30.06.189,alternatingbabyloc,2023.2.2,92.80284602113461,
,,,,,,,,,7419.501474317018,27,faces-41.jpg,,pilotbb,1,vpnl,2024-01-23_10h30.06.189,alternatingbabyloc,2023.2.2,92.80284602113461,
,,,,,,,,,7420.001446792012,27,faces-42.jpg,,pilotbb,1,vpnl,2024-01-23_10h30.06.189,alternatingbabyloc,2023.2.2,92.80284602113461,
,,,,,,,,,7420.501375454012,27,faces-43.jpg,,pilotbb,1,vpnl,2024-01-23_10h30.06.189,alternatingbabyloc,2023.2.2,92.80284602113461,
,,,,,,,,,7421.001369303005,27,faces-44.jpg,,pilotbb,1,vpnl,2024-01-23_10h30.06.189,alternatingbabyloc,2023.2.2,92.80284602113461,
,,,,,,,,,7421.501240707003,27,faces-45.jpg,,pilotbb,1,vpnl,2024-01-23_10h30.06.189,alternatingbabyloc,2023.2.2,92.80284602113461,
,,,,,,,,,7422.002148069005,27,faces-46.jpg,,pilotbb,1,vpnl,2024-01-23_10h30.06.189,alternatingbabyloc,2023.2.2,92.80284602113461,
,,,,,,,,,7422.501649878017,27,faces-47.jpg,,pilotbb,1,vpnl,2024-01-23_10h30.06.189,alternatingbabyloc,2023.2.2,92.80284602113461,
,,,,,,,,,7423.001639388007,27,faces-48.jpg,,pilotbb,1,vpnl,2024-01-23_10h30.06.189,alternatingbabyloc,2023.2.2,92.80284602113461,
,,,,,,,,,7423.501733929006,28,scenes-41.jpg,,pilotbb,1,vpnl,2024-01-23_10h30.06.189,alternatingbabyloc,2023.2.2,92.80284602113461,
,,,,,,,,,7424.001434423,28,scenes-42.jpg,,pilotbb,1,vpnl,2024-01-23_10h30.06.189,alternatingbabyloc,2023.2.2,92.80284602113461,
,,,,,,,,,7424.5014960420085,28,scenes-43.jpg,,pilotbb,1,vpnl,2024-01-23_10h30.06.189,alternatingbabyloc,2023.2.2,92.80284602113461,
,,,,,,,,,7425.001273813017,28,scenes-44.jpg,,pilotbb,1,vpnl,2024-01-23_10h30.06.189,alternatingbabyloc,2023.2.2,92.80284602113461,
,,,,,,,,,7425.501084273012,28,scenes-45.jpg,,pilotbb,1,vpnl,2024-01-23_10h30.06.189,alternatingbabyloc,2023.2.2,92.80284602113461,
,,,,,,,,,7426.0020881200035,28,scenes-46.jpg,,pilotbb,1,vpnl,2024-01-23_10h30.06.189,alternatingbabyloc,2023.2.2,92.80284602113461,
,,,,,,,,,7426.501146221999,28,scenes-47.jpg,,pilotbb,1,vpnl,2024-01-23_10h30.06.189,alternatingbabyloc,2023.2.2,92.80284602113461,
,,,,,,,,,7427.001462829998,28,scenes-48.jpg,,pilotbb,1,vpnl,2024-01-23_10h30.06.189,alternatingbabyloc,2023.2.2,92.80284602113461,
,,,,,,,,,7427.50174744401,29,hands-41.jpg,,pilotbb,1,vpnl,2024-01-23_10h30.06.189,alternatingbabyloc,2023.2.2,92.80284602113461,
,,,,,,,,,7428.001592723012,29,hands-42.jpg,,pilotbb,1,vpnl,2024-01-23_10h30.06.189,alternatingbabyloc,2023.2.2,92.80284602113461,
,,,,,,,,,7428.503892826993,29,hands-43.jpg,,pilotbb,1,vpnl,2024-01-23_10h30.06.189,alternatingbabyloc,2023.2.2,92.80284602113461,
,,,,,,,,,7429.002948826994,29,hands-44.jpg,,pilotbb,1,vpnl,2024-01-23_10h30.06.189,alternatingbabyloc,2023.2.2,92.80284602113461,
,,,,,,,,,7429.50349520499,29,hands-45.jpg,,pilotbb,1,vpnl,2024-01-23_10h30.06.189,alternatingbabyloc,2023.2.2,92.80284602113461,
,,,,,,,,,7430.002792407002,29,hands-46.jpg,,pilotbb,1,vpnl,2024-01-23_10h30.06.189,alternatingbabyloc,2023.2.2,92.80284602113461,
,,,,,,,,,7430.503088983998,29,hands-47.jpg,,pilotbb,1,vpnl,2024-01-23_10h30.06.189,alternatingbabyloc,2023.2.2,92.80284602113461,
,,,,,,,,,7431.002570265991,29,hands-48.jpg,,pilotbb,1,vpnl,2024-01-23_10h30.06.189,alternatingbabyloc,2023.2.2,92.80284602113461,
,,,,,,,,,7431.504980466008,30,blank-49.jpg,,pilotbb,1,vpnl,2024-01-23_10h30.06.189,alternatingbabyloc,2023.2.2,92.80284602113461,
,,,,,,,,,7432.003280297999,30,blank-50.jpg,,pilotbb,1,vpnl,2024-01-23_10h30.06.189,alternatingbabyloc,2023.2.2,92.80284602113461,
,,,,,,,,,7432.504708113993,30,blank-51.jpg,,pilotbb,1,vpnl,2024-01-23_10h30.06.189,alternatingbabyloc,2023.2.2,92.80284602113461,
,,,,,,,,,7433.002874391008,30,blank-52.jpg,,pilotbb,1,vpnl,2024-01-23_10h30.06.189,alternatingbabyloc,2023.2.2,92.80284602113461,
,,,,,,,,,7433.503187811992,30,blank-53.jpg,,pilotbb,1,vpnl,2024-01-23_10h30.06.189,alternatingbabyloc,2023.2.2,92.80284602113461,
,,,,,,,,,7434.0034509059915,30,blank-54.jpg,,pilotbb,1,vpnl,2024-01-23_10h30.06.189,alternatingbabyloc,2023.2.2,92.80284602113461,
,,,,,,,,,7434.504057968996,30,blank-55.jpg,,pilotbb,1,vpnl,2024-01-23_10h30.06.189,alternatingbabyloc,2023.2.2,92.80284602113461,
,,,,,,,,,7435.002319146006,30,blank-56.jpg,,pilotbb,1,vpnl,2024-01-23_10h30.06.189,alternatingbabyloc,2023.2.2,92.80284602113461,
,,,,,,,,,7435.504255537002,31,cars-41.jpg,,pilotbb,1,vpnl,2024-01-23_10h30.06.189,alternatingbabyloc,2023.2.2,92.80284602113461,
,,,,,,,,,7436.003378996014,31,cars-42.jpg,,pilotbb,1,vpnl,2024-01-23_10h30.06.189,alternatingbabyloc,2023.2.2,92.80284602113461,
,,,,,,,,,7436.504166630999,31,cars-43.jpg,,pilotbb,1,vpnl,2024-01-23_10h30.06.189,alternatingbabyloc,2023.2.2,92.80284602113461,
,,,,,,,,,7437.003963304014,31,cars-44.jpg,,pilotbb,1,vpnl,2024-01-23_10h30.06.189,alternatingbabyloc,2023.2.2,92.80284602113461,
,,,,,,,,,7437.50355529401,31,cars-45.jpg,,pilotbb,1,vpnl,2024-01-23_10h30.06.189,alternatingbabyloc,2023.2.2,92.80284602113461,
,,,,,,,,,7438.002858131018,31,cars-46.jpg,,pilotbb,1,vpnl,2024-01-23_10h30.06.189,alternatingbabyloc,2023.2.2,92.80284602113461,
,,,,,,,,,7438.503778003011,31,cars-47.jpg,,pilotbb,1,vpnl,2024-01-23_10h30.06.189,alternatingbabyloc,2023.2.2,92.80284602113461,
,,,,,,,,,7439.003857531003,31,cars-48.jpg,,pilotbb,1,vpnl,2024-01-23_10h30.06.189,alternatingbabyloc,2023.2.2,92.80284602113461,
,,,,,,,,,7439.504309045005,32,faces-49.jpg,,pilotbb,1,vpnl,2024-01-23_10h30.06.189,alternatingbabyloc,2023.2.2,92.80284602113461,
,,,,,,,,,7440.003215553006,32,faces-50.jpg,,pilotbb,1,vpnl,2024-01-23_10h30.06.189,alternatingbabyloc,2023.2.2,92.80284602113461,
,,,,,,,,,7440.503857881995,32,faces-51.jpg,,pilotbb,1,vpnl,2024-01-23_10h30.06.189,alternatingbabyloc,2023.2.2,92.80284602113461,
,,,,,,,,,7441.00378312901,32,faces-52.jpg,,pilotbb,1,vpnl,2024-01-23_10h30.06.189,alternatingbabyloc,2023.2.2,92.80284602113461,
,,,,,,,,,7441.504563880997,32,faces-53.jpg,,pilotbb,1,vpnl,2024-01-23_10h30.06.189,alternatingbabyloc,2023.2.2,92.80284602113461,
,,,,,,,,,7442.003300764016,32,faces-54.jpg,,pilotbb,1,vpnl,2024-01-23_10h30.06.189,alternatingbabyloc,2023.2.2,92.80284602113461,
,,,,,,,,,7442.503987887991,32,faces-55.jpg,,pilotbb,1,vpnl,2024-01-23_10h30.06.189,alternatingbabyloc,2023.2.2,92.80284602113461,
,,,,,,,,,7443.003811789997,32,faces-56.jpg,,pilotbb,1,vpnl,2024-01-23_10h30.06.189,alternatingbabyloc,2023.2.2,92.80284602113461,
,,,,,,,,,7443.50324510099,33,cars-49.jpg,,pilotbb,1,vpnl,2024-01-23_10h30.06.189,alternatingbabyloc,2023.2.2,92.80284602113461,
,,,,,,,,,7444.003102538991,33,cars-50.jpg,,pilotbb,1,vpnl,2024-01-23_10h30.06.189,alternatingbabyloc,2023.2.2,92.80284602113461,
,,,,,,,,,7444.50362332401,33,cars-51.jpg,,pilotbb,1,vpnl,2024-01-23_10h30.06.189,alternatingbabyloc,2023.2.2,92.80284602113461,
,,,,,,,,,7445.000907142006,33,cars-52.jpg,,pilotbb,1,vpnl,2024-01-23_10h30.06.189,alternatingbabyloc,2023.2.2,92.80284602113461,
,,,,,,,,,7445.501087707002,33,cars-53.jpg,,pilotbb,1,vpnl,2024-01-23_10h30.06.189,alternatingbabyloc,2023.2.2,92.80284602113461,
,,,,,,,,,7446.000829952012,33,cars-54.jpg,,pilotbb,1,vpnl,2024-01-23_10h30.06.189,alternatingbabyloc,2023.2.2,92.80284602113461,
,,,,,,,,,7446.5008624109905,33,cars-55.jpg,,pilotbb,1,vpnl,2024-01-23_10h30.06.189,alternatingbabyloc,2023.2.2,92.80284602113461,
,,,,,,,,,7447.001112141006,33,cars-56.jpg,,pilotbb,1,vpnl,2024-01-23_10h30.06.189,alternatingbabyloc,2023.2.2,92.80284602113461,
,,,,,,,,,7447.501214188,34,scenes-49.jpg,,pilotbb,1,vpnl,2024-01-23_10h30.06.189,alternatingbabyloc,2023.2.2,92.80284602113461,
,,,,,,,,,7448.002942384017,34,scenes-50.jpg,,pilotbb,1,vpnl,2024-01-23_10h30.06.189,alternatingbabyloc,2023.2.2,92.80284602113461,
,,,,,,,,,7448.501029139006,34,scenes-51.jpg,,pilotbb,1,vpnl,2024-01-23_10h30.06.189,alternatingbabyloc,2023.2.2,92.80284602113461,
,,,,,,,,,7449.002518079011,34,scenes-52.jpg,,pilotbb,1,vpnl,2024-01-23_10h30.06.189,alternatingbabyloc,2023.2.2,92.80284602113461,
,,,,,,,,,7449.492245072004,34,scenes-53.jpg,,pilotbb,1,vpnl,2024-01-23_10h30.06.189,alternatingbabyloc,2023.2.2,92.80284602113461,
,,,,,,,,,7450.000764257013,34,scenes-54.jpg,,pilotbb,1,vpnl,2024-01-23_10h30.06.189,alternatingbabyloc,2023.2.2,92.80284602113461,
,,,,,,,,,7450.500969495013,34,scenes-55.jpg,,pilotbb,1,vpnl,2024-01-23_10h30.06.189,alternatingbabyloc,2023.2.2,92.80284602113461,
,,,,,,,,,7450.999597125017,34,scenes-56.jpg,,pilotbb,1,vpnl,2024-01-23_10h30.06.189,alternatingbabyloc,2023.2.2,92.80284602113461,
,,,,,,,,,7451.500516080996,35,hands-49.jpg,,pilotbb,1,vpnl,2024-01-23_10h30.06.189,alternatingbabyloc,2023.2.2,92.80284602113461,
,,,,,,,,,7452.001034952991,35,hands-50.jpg,,pilotbb,1,vpnl,2024-01-23_10h30.06.189,alternatingbabyloc,2023.2.2,92.80284602113461,
,,,,,,,,,7452.5006334469945,35,hands-51.jpg,,pilotbb,1,vpnl,2024-01-23_10h30.06.189,alternatingbabyloc,2023.2.2,92.80284602113461,
,,,,,,,,,7453.001200043014,35,hands-52.jpg,,pilotbb,1,vpnl,2024-01-23_10h30.06.189,alternatingbabyloc,2023.2.2,92.80284602113461,
,,,,,,,,,7453.5008115060045,35,hands-53.jpg,,pilotbb,1,vpnl,2024-01-23_10h30.06.189,alternatingbabyloc,2023.2.2,92.80284602113461,
,,,,,,,,,7454.000576068007,35,hands-54.jpg,,pilotbb,1,vpnl,2024-01-23_10h30.06.189,alternatingbabyloc,2023.2.2,92.80284602113461,
,,,,,,,,,7454.5009870860085,35,hands-55.jpg,,pilotbb,1,vpnl,2024-01-23_10h30.06.189,alternatingbabyloc,2023.2.2,92.80284602113461,
,,,,,,,,,7455.000416563998,35,hands-56.jpg,,pilotbb,1,vpnl,2024-01-23_10h30.06.189,alternatingbabyloc,2023.2.2,92.80284602113461,
,,,,,,,,,7455.500573388999,36,blank-57.jpg,,pilotbb,1,vpnl,2024-01-23_10h30.06.189,alternatingbabyloc,2023.2.2,92.80284602113461,
,,,,,,,,,7456.000550730008,36,blank-58.jpg,,pilotbb,1,vpnl,2024-01-23_10h30.06.189,alternatingbabyloc,2023.2.2,92.80284602113461,
,,,,,,,,,7456.500863460009,36,blank-59.jpg,,pilotbb,1,vpnl,2024-01-23_10h30.06.189,alternatingbabyloc,2023.2.2,92.80284602113461,
,,,,,,,,,7457.000816874002,36,blank-60.jpg,,pilotbb,1,vpnl,2024-01-23_10h30.06.189,alternatingbabyloc,2023.2.2,92.80284602113461,
,,,,,,,,,7457.508505444013,36,blank-61.jpg,,pilotbb,1,vpnl,2024-01-23_10h30.06.189,alternatingbabyloc,2023.2.2,92.80284602113461,
,,,,,,,,,7458.000530777004,36,blank-62.jpg,,pilotbb,1,vpnl,2024-01-23_10h30.06.189,alternatingbabyloc,2023.2.2,92.80284602113461,
,,,,,,,,,7458.500705257,36,blank-63.jpg,,pilotbb,1,vpnl,2024-01-23_10h30.06.189,alternatingbabyloc,2023.2.2,92.80284602113461,
,,,,,,,,,7459.001046374004,36,blank-64.jpg,,pilotbb,1,vpnl,2024-01-23_10h30.06.189,alternatingbabyloc,2023.2.2,92.80284602113461,
,,,,,,,,,7459.501068768994,37,cars-57.jpg,,pilotbb,1,vpnl,2024-01-23_10h30.06.189,alternatingbabyloc,2023.2.2,92.80284602113461,
,,,,,,,,,7460.000429686013,37,cars-58.jpg,,pilotbb,1,vpnl,2024-01-23_10h30.06.189,alternatingbabyloc,2023.2.2,92.80284602113461,
,,,,,,,,,7460.500705856015,37,cars-59.jpg,,pilotbb,1,vpnl,2024-01-23_10h30.06.189,alternatingbabyloc,2023.2.2,92.80284602113461,
,,,,,,,,,7460.990805784997,37,cars-60.jpg,,pilotbb,1,vpnl,2024-01-23_10h30.06.189,alternatingbabyloc,2023.2.2,92.80284602113461,
,,,,,,,,,7461.502824533003,37,cars-61.jpg,,pilotbb,1,vpnl,2024-01-23_10h30.06.189,alternatingbabyloc,2023.2.2,92.80284602113461,
,,,,,,,,,7462.003143158014,37,cars-62.jpg,,pilotbb,1,vpnl,2024-01-23_10h30.06.189,alternatingbabyloc,2023.2.2,92.80284602113461,
,,,,,,,,,7462.502812671999,37,cars-63.jpg,,pilotbb,1,vpnl,2024-01-23_10h30.06.189,alternatingbabyloc,2023.2.2,92.80284602113461,
,,,,,,,,,7463.003432483994,37,cars-64.jpg,,pilotbb,1,vpnl,2024-01-23_10h30.06.189,alternatingbabyloc,2023.2.2,92.80284602113461,
,,,,,,,,,7463.503364364005,38,faces-57.jpg,,pilotbb,1,vpnl,2024-01-23_10h30.06.189,alternatingbabyloc,2023.2.2,92.80284602113461,
,,,,,,,,,7464.003020291013,38,faces-58.jpg,,pilotbb,1,vpnl,2024-01-23_10h30.06.189,alternatingbabyloc,2023.2.2,92.80284602113461,
,,,,,,,,,7464.503125862015,38,faces-59.jpg,,pilotbb,1,vpnl,2024-01-23_10h30.06.189,alternatingbabyloc,2023.2.2,92.80284602113461,
,,,,,,,,,7465.003074726992,38,faces-60.jpg,,pilotbb,1,vpnl,2024-01-23_10h30.06.189,alternatingbabyloc,2023.2.2,92.80284602113461,
,,,,,,,,,7465.503263360995,38,faces-61.jpg,,pilotbb,1,vpnl,2024-01-23_10h30.06.189,alternatingbabyloc,2023.2.2,92.80284602113461,
,,,,,,,,,7466.003404551011,38,faces-62.jpg,,pilotbb,1,vpnl,2024-01-23_10h30.06.189,alternatingbabyloc,2023.2.2,92.80284602113461,
,,,,,,,,,7466.50261900801,38,faces-63.jpg,,pilotbb,1,vpnl,2024-01-23_10h30.06.189,alternatingbabyloc,2023.2.2,92.80284602113461,
,,,,,,,,,7467.003252329014,38,faces-64.jpg,,pilotbb,1,vpnl,2024-01-23_10h30.06.189,alternatingbabyloc,2023.2.2,92.80284602113461,
,,,,,,,,,7467.502259536006,39,scenes-57.jpg,,pilotbb,1,vpnl,2024-01-23_10h30.06.189,alternatingbabyloc,2023.2.2,92.80284602113461,
,,,,,,,,,7468.002804046002,39,scenes-58.jpg,,pilotbb,1,vpnl,2024-01-23_10h30.06.189,alternatingbabyloc,2023.2.2,92.80284602113461,
,,,,,,,,,7468.5031711269985,39,scenes-59.jpg,,pilotbb,1,vpnl,2024-01-23_10h30.06.189,alternatingbabyloc,2023.2.2,92.80284602113461,
,,,,,,,,,7468.9896155089955,39,scenes-60.jpg,,pilotbb,1,vpnl,2024-01-23_10h30.06.189,alternatingbabyloc,2023.2.2,92.80284602113461,
,,,,,,,,,7469.502495886001,39,scenes-61.jpg,,pilotbb,1,vpnl,2024-01-23_10h30.06.189,alternatingbabyloc,2023.2.2,92.80284602113461,
,,,,,,,,,7470.003234586009,39,scenes-62.jpg,,pilotbb,1,vpnl,2024-01-23_10h30.06.189,alternatingbabyloc,2023.2.2,92.80284602113461,
,,,,,,,,,7470.502505326993,39,scenes-63.jpg,,pilotbb,1,vpnl,2024-01-23_10h30.06.189,alternatingbabyloc,2023.2.2,92.80284602113461,
,,,,,,,,,7471.002363019012,39,scenes-64.jpg,,pilotbb,1,vpnl,2024-01-23_10h30.06.189,alternatingbabyloc,2023.2.2,92.80284602113461,
,,,,,,,,,7471.499844720995,40,hands-57.jpg,,pilotbb,1,vpnl,2024-01-23_10h30.06.189,alternatingbabyloc,2023.2.2,92.80284602113461,
,,,,,,,,,7472.003018081014,40,hands-58.jpg,,pilotbb,1,vpnl,2024-01-23_10h30.06.189,alternatingbabyloc,2023.2.2,92.80284602113461,
,,,,,,,,,7472.502710875007,40,hands-59.jpg,,pilotbb,1,vpnl,2024-01-23_10h30.06.189,alternatingbabyloc,2023.2.2,92.80284602113461,
,,,,,,,,,7473.002312992001,40,hands-60.jpg,,pilotbb,1,vpnl,2024-01-23_10h30.06.189,alternatingbabyloc,2023.2.2,92.80284602113461,
,,,,,,,,,7473.502239009016,40,hands-61.jpg,,pilotbb,1,vpnl,2024-01-23_10h30.06.189,alternatingbabyloc,2023.2.2,92.80284602113461,
,,,,,,,,,7474.002887258015,40,hands-62.jpg,,pilotbb,1,vpnl,2024-01-23_10h30.06.189,alternatingbabyloc,2023.2.2,92.80284602113461,
,,,,,,,,,7474.502832090016,40,hands-63.jpg,,pilotbb,1,vpnl,2024-01-23_10h30.06.189,alternatingbabyloc,2023.2.2,92.80284602113461,
,,,,,,,,,7475.002042619017,40,hands-64.jpg,,pilotbb,1,vpnl,2024-01-23_10h30.06.189,alternatingbabyloc,2023.2.2,92.80284602113461,
,,,,,,,,,7475.502213658998,41,blank-65.jpg,,pilotbb,1,vpnl,2024-01-23_10h30.06.189,alternatingbabyloc,2023.2.2,92.80284602113461,
,,,,,,,,,7476.0020395019965,41,blank-66.jpg,,pilotbb,1,vpnl,2024-01-23_10h30.06.189,alternatingbabyloc,2023.2.2,92.80284602113461,
,,,,,,,,,7476.50283034399,41,blank-67.jpg,,pilotbb,1,vpnl,2024-01-23_10h30.06.189,alternatingbabyloc,2023.2.2,92.80284602113461,
,,,,,,,,,7477.002570454992,41,blank-68.jpg,,pilotbb,1,vpnl,2024-01-23_10h30.06.189,alternatingbabyloc,2023.2.2,92.80284602113461,
,,,,,,,,,7477.499827074003,41,blank-69.jpg,,pilotbb,1,vpnl,2024-01-23_10h30.06.189,alternatingbabyloc,2023.2.2,92.80284602113461,
,,,,,,,,,7477.9999840809905,41,blank-70.jpg,,pilotbb,1,vpnl,2024-01-23_10h30.06.189,alternatingbabyloc,2023.2.2,92.80284602113461,
,,,,,,,,,7478.500578950014,41,blank-71.jpg,,pilotbb,1,vpnl,2024-01-23_10h30.06.189,alternatingbabyloc,2023.2.2,92.80284602113461,
,,,,,,,,,7478.999940729991,41,blank-72.jpg,,pilotbb,1,vpnl,2024-01-23_10h30.06.189,alternatingbabyloc,2023.2.2,92.80284602113461,
,,,,,,,,,7479.499885675003,42,cars-65.jpg,,pilotbb,1,vpnl,2024-01-23_10h30.06.189,alternatingbabyloc,2023.2.2,92.80284602113461,
,,,,,,,,,7480.000035039993,42,cars-66.jpg,,pilotbb,1,vpnl,2024-01-23_10h30.06.189,alternatingbabyloc,2023.2.2,92.80284602113461,
,,,,,,,,,7480.500065978005,42,cars-67.jpg,,pilotbb,1,vpnl,2024-01-23_10h30.06.189,alternatingbabyloc,2023.2.2,92.80284602113461,
,,,,,,,,,7481.0002112599905,42,cars-68.jpg,,pilotbb,1,vpnl,2024-01-23_10h30.06.189,alternatingbabyloc,2023.2.2,92.80284602113461,
,,,,,,,,,7481.499864117999,42,cars-69.jpg,,pilotbb,1,vpnl,2024-01-23_10h30.06.189,alternatingbabyloc,2023.2.2,92.80284602113461,
,,,,,,,,,7482.000003487017,42,cars-70.jpg,,pilotbb,1,vpnl,2024-01-23_10h30.06.189,alternatingbabyloc,2023.2.2,92.80284602113461,
,,,,,,,,,7482.500371663016,42,cars-71.jpg,,pilotbb,1,vpnl,2024-01-23_10h30.06.189,alternatingbabyloc,2023.2.2,92.80284602113461,
,,,,,,,,,7483.000512129016,42,cars-72.jpg,,pilotbb,1,vpnl,2024-01-23_10h30.06.189,alternatingbabyloc,2023.2.2,92.80284602113461,
,,,,,,,,,7483.5001454410085,43,hands-65.jpg,,pilotbb,1,vpnl,2024-01-23_10h30.06.189,alternatingbabyloc,2023.2.2,92.80284602113461,
,,,,,,,,,7484.000112818991,43,hands-66.jpg,,pilotbb,1,vpnl,2024-01-23_10h30.06.189,alternatingbabyloc,2023.2.2,92.80284602113461,
,,,,,,,,,7484.4998424850055,43,hands-67.jpg,,pilotbb,1,vpnl,2024-01-23_10h30.06.189,alternatingbabyloc,2023.2.2,92.80284602113461,
,,,,,,,,,7485.000034716999,43,hands-68.jpg,,pilotbb,1,vpnl,2024-01-23_10h30.06.189,alternatingbabyloc,2023.2.2,92.80284602113461,
,,,,,,,,,7485.4996284809895,43,hands-69.jpg,,pilotbb,1,vpnl,2024-01-23_10h30.06.189,alternatingbabyloc,2023.2.2,92.80284602113461,
,,,,,,,,,7485.999878160015,43,hands-70.jpg,,pilotbb,1,vpnl,2024-01-23_10h30.06.189,alternatingbabyloc,2023.2.2,92.80284602113461,
,,,,,,,,,7486.500084910018,43,hands-71.jpg,,pilotbb,1,vpnl,2024-01-23_10h30.06.189,alternatingbabyloc,2023.2.2,92.80284602113461,
,,,,,,,,,7487.000002292014,43,hands-72.jpg,,pilotbb,1,vpnl,2024-01-23_10h30.06.189,alternatingbabyloc,2023.2.2,92.80284602113461,
,,,,,,,,,7487.499612699001,44,blank-73.jpg,,pilotbb,1,vpnl,2024-01-23_10h30.06.189,alternatingbabyloc,2023.2.2,92.80284602113461,
,,,,,,,,,7487.99943602999,44,blank-74.jpg,,pilotbb,1,vpnl,2024-01-23_10h30.06.189,alternatingbabyloc,2023.2.2,92.80284602113461,
,,,,,,,,,7488.501749677991,44,blank-75.jpg,,pilotbb,1,vpnl,2024-01-23_10h30.06.189,alternatingbabyloc,2023.2.2,92.80284602113461,
,,,,,,,,,7489.0022808270005,44,blank-76.jpg,,pilotbb,1,vpnl,2024-01-23_10h30.06.189,alternatingbabyloc,2023.2.2,92.80284602113461,
,,,,,,,,,7489.499588911014,44,blank-77.jpg,,pilotbb,1,vpnl,2024-01-23_10h30.06.189,alternatingbabyloc,2023.2.2,92.80284602113461,
,,,,,,,,,7490.001468155999,44,blank-78.jpg,,pilotbb,1,vpnl,2024-01-23_10h30.06.189,alternatingbabyloc,2023.2.2,92.80284602113461,
,,,,,,,,,7490.499673901009,44,blank-79.jpg,,pilotbb,1,vpnl,2024-01-23_10h30.06.189,alternatingbabyloc,2023.2.2,92.80284602113461,
,,,,,,,,,7490.999850455002,44,blank-80.jpg,,pilotbb,1,vpnl,2024-01-23_10h30.06.189,alternatingbabyloc,2023.2.2,92.80284602113461,
,,,,,,,,,7491.499467679998,45,faces-65.jpg,,pilotbb,1,vpnl,2024-01-23_10h30.06.189,alternatingbabyloc,2023.2.2,92.80284602113461,
,,,,,,,,,7491.999511745991,45,faces-66.jpg,,pilotbb,1,vpnl,2024-01-23_10h30.06.189,alternatingbabyloc,2023.2.2,92.80284602113461,
,,,,,,,,,7492.499379485991,45,faces-67.jpg,,pilotbb,1,vpnl,2024-01-23_10h30.06.189,alternatingbabyloc,2023.2.2,92.80284602113461,
,,,,,,,,,7492.999911099003,45,faces-68.jpg,,pilotbb,1,vpnl,2024-01-23_10h30.06.189,alternatingbabyloc,2023.2.2,92.80284602113461,
,,,,,,,,,7493.499997428007,45,faces-69.jpg,,pilotbb,1,vpnl,2024-01-23_10h30.06.189,alternatingbabyloc,2023.2.2,92.80284602113461,
,,,,,,,,,7494.00205910299,45,faces-70.jpg,,pilotbb,1,vpnl,2024-01-23_10h30.06.189,alternatingbabyloc,2023.2.2,92.80284602113461,
,,,,,,,,,7494.501986342017,45,faces-71.jpg,,pilotbb,1,vpnl,2024-01-23_10h30.06.189,alternatingbabyloc,2023.2.2,92.80284602113461,
,,,,,,,,,7495.002008508018,45,faces-72.jpg,,pilotbb,1,vpnl,2024-01-23_10h30.06.189,alternatingbabyloc,2023.2.2,92.80284602113461,
,,,,,,,,,7495.501891521009,46,scenes-65.jpg,,pilotbb,1,vpnl,2024-01-23_10h30.06.189,alternatingbabyloc,2023.2.2,92.80284602113461,
,,,,,,,,,7496.0014260440075,46,scenes-66.jpg,,pilotbb,1,vpnl,2024-01-23_10h30.06.189,alternatingbabyloc,2023.2.2,92.80284602113461,
,,,,,,,,,7496.502196482994,46,scenes-67.jpg,,pilotbb,1,vpnl,2024-01-23_10h30.06.189,alternatingbabyloc,2023.2.2,92.80284602113461,
,,,,,,,,,7497.002651153016,46,scenes-68.jpg,,pilotbb,1,vpnl,2024-01-23_10h30.06.189,alternatingbabyloc,2023.2.2,92.80284602113461,
,,,,,,,,,7497.501365639997,46,scenes-69.jpg,,pilotbb,1,vpnl,2024-01-23_10h30.06.189,alternatingbabyloc,2023.2.2,92.80284602113461,
,,,,,,,,,7498.005214031,46,scenes-70.jpg,,pilotbb,1,vpnl,2024-01-23_10h30.06.189,alternatingbabyloc,2023.2.2,92.80284602113461,
,,,,,,,,,7498.501897801994,46,scenes-71.jpg,,pilotbb,1,vpnl,2024-01-23_10h30.06.189,alternatingbabyloc,2023.2.2,92.80284602113461,
,,,,,,,,,7499.002139043005,46,scenes-72.jpg,,pilotbb,1,vpnl,2024-01-23_10h30.06.189,alternatingbabyloc,2023.2.2,92.80284602113461,
,,,,,,,,,7499.502065609995,47,faces-73.jpg,,pilotbb,1,vpnl,2024-01-23_10h30.06.189,alternatingbabyloc,2023.2.2,92.80284602113461,
,,,,,,,,,7500.002294448001,47,faces-74.jpg,,pilotbb,1,vpnl,2024-01-23_10h30.06.189,alternatingbabyloc,2023.2.2,92.80284602113461,
,,,,,,,,,7500.501314204012,47,faces-75.jpg,,pilotbb,1,vpnl,2024-01-23_10h30.06.189,alternatingbabyloc,2023.2.2,92.80284602113461,
,,,,,,,,,7501.0016296690155,47,faces-76.jpg,,pilotbb,1,vpnl,2024-01-23_10h30.06.189,alternatingbabyloc,2023.2.2,92.80284602113461,
,,,,,,,,,7501.503665463009,47,faces-77.jpg,,pilotbb,1,vpnl,2024-01-23_10h30.06.189,alternatingbabyloc,2023.2.2,92.80284602113461,
,,,,,,,,,7502.001460408006,47,faces-78.jpg,,pilotbb,1,vpnl,2024-01-23_10h30.06.189,alternatingbabyloc,2023.2.2,92.80284602113461,
,,,,,,,,,7502.501375090011,47,faces-79.jpg,,pilotbb,1,vpnl,2024-01-23_10h30.06.189,alternatingbabyloc,2023.2.2,92.80284602113461,
,,,,,,,,,7503.00146286501,47,faces-80.jpg,,pilotbb,1,vpnl,2024-01-23_10h30.06.189,alternatingbabyloc,2023.2.2,92.80284602113461,
,,,,,,,,,7503.502116665011,48,cars-73.jpg,,pilotbb,1,vpnl,2024-01-23_10h30.06.189,alternatingbabyloc,2023.2.2,92.80284602113461,
,,,,,,,,,7504.001163411012,48,cars-74.jpg,,pilotbb,1,vpnl,2024-01-23_10h30.06.189,alternatingbabyloc,2023.2.2,92.80284602113461,
,,,,,,,,,7504.501815943018,48,cars-75.jpg,,pilotbb,1,vpnl,2024-01-23_10h30.06.189,alternatingbabyloc,2023.2.2,92.80284602113461,
,,,,,,,,,7505.0011443110125,48,cars-76.jpg,,pilotbb,1,vpnl,2024-01-23_10h30.06.189,alternatingbabyloc,2023.2.2,92.80284602113461,
,,,,,,,,,7505.503312802,48,cars-77.jpg,,pilotbb,1,vpnl,2024-01-23_10h30.06.189,alternatingbabyloc,2023.2.2,92.80284602113461,
,,,,,,,,,7506.0034976970055,48,cars-78.jpg,,pilotbb,1,vpnl,2024-01-23_10h30.06.189,alternatingbabyloc,2023.2.2,92.80284602113461,
,,,,,,,,,7506.50122657101,48,cars-79.jpg,,pilotbb,1,vpnl,2024-01-23_10h30.06.189,alternatingbabyloc,2023.2.2,92.80284602113461,
,,,,,,,,,7507.002563960006,48,cars-80.jpg,,pilotbb,1,vpnl,2024-01-23_10h30.06.189,alternatingbabyloc,2023.2.2,92.80284602113461,
,,,,,,,,,7507.501894385001,49,blank-81.jpg,,pilotbb,1,vpnl,2024-01-23_10h30.06.189,alternatingbabyloc,2023.2.2,92.80284602113461,
,,,,,,,,,7508.001711381017,49,blank-82.jpg,,pilotbb,1,vpnl,2024-01-23_10h30.06.189,alternatingbabyloc,2023.2.2,92.80284602113461,
,,,,,,,,,7508.501782809006,49,blank-83.jpg,,pilotbb,1,vpnl,2024-01-23_10h30.06.189,alternatingbabyloc,2023.2.2,92.80284602113461,
,,,,,,,,,7509.001344368007,49,blank-84.jpg,,pilotbb,1,vpnl,2024-01-23_10h30.06.189,alternatingbabyloc,2023.2.2,92.80284602113461,
,,,,,,,,,7509.501348897,49,blank-85.jpg,,pilotbb,1,vpnl,2024-01-23_10h30.06.189,alternatingbabyloc,2023.2.2,92.80284602113461,
,,,,,,,,,7510.002172984008,49,blank-86.jpg,,pilotbb,1,vpnl,2024-01-23_10h30.06.189,alternatingbabyloc,2023.2.2,92.80284602113461,
,,,,,,,,,7510.49900277899,49,blank-87.jpg,,pilotbb,1,vpnl,2024-01-23_10h30.06.189,alternatingbabyloc,2023.2.2,92.80284602113461,
,,,,,,,,,7510.99920814301,49,blank-88.jpg,,pilotbb,1,vpnl,2024-01-23_10h30.06.189,alternatingbabyloc,2023.2.2,92.80284602113461,
,,,,,,,,,7511.499535172014,50,hands-73.jpg,,pilotbb,1,vpnl,2024-01-23_10h30.06.189,alternatingbabyloc,2023.2.2,92.80284602113461,
,,,,,,,,,7511.9988444430055,50,hands-74.jpg,,pilotbb,1,vpnl,2024-01-23_10h30.06.189,alternatingbabyloc,2023.2.2,92.80284602113461,
,,,,,,,,,7512.499037000991,50,hands-75.jpg,,pilotbb,1,vpnl,2024-01-23_10h30.06.189,alternatingbabyloc,2023.2.2,92.80284602113461,
,,,,,,,,,7512.999061682,50,hands-76.jpg,,pilotbb,1,vpnl,2024-01-23_10h30.06.189,alternatingbabyloc,2023.2.2,92.80284602113461,
,,,,,,,,,7513.500597081991,50,hands-77.jpg,,pilotbb,1,vpnl,2024-01-23_10h30.06.189,alternatingbabyloc,2023.2.2,92.80284602113461,
,,,,,,,,,7513.998593269003,50,hands-78.jpg,,pilotbb,1,vpnl,2024-01-23_10h30.06.189,alternatingbabyloc,2023.2.2,92.80284602113461,
,,,,,,,,,7514.500124918006,50,hands-79.jpg,,pilotbb,1,vpnl,2024-01-23_10h30.06.189,alternatingbabyloc,2023.2.2,92.80284602113461,
,,,,,,,,,7515.00082422499,50,hands-80.jpg,,pilotbb,1,vpnl,2024-01-23_10h30.06.189,alternatingbabyloc,2023.2.2,92.80284602113461,
,,,,,,,,,7515.500312696997,51,scenes-73.jpg,,pilotbb,1,vpnl,2024-01-23_10h30.06.189,alternatingbabyloc,2023.2.2,92.80284602113461,
,,,,,,,,,7516.000957540993,51,scenes-74.jpg,,pilotbb,1,vpnl,2024-01-23_10h30.06.189,alternatingbabyloc,2023.2.2,92.80284602113461,
,,,,,,,,,7516.499284852005,51,scenes-75.jpg,,pilotbb,1,vpnl,2024-01-23_10h30.06.189,alternatingbabyloc,2023.2.2,92.80284602113461,
,,,,,,,,,7516.998832643003,51,scenes-76.jpg,,pilotbb,1,vpnl,2024-01-23_10h30.06.189,alternatingbabyloc,2023.2.2,92.80284602113461,
,,,,,,,,,7517.498726221005,51,scenes-77.jpg,,pilotbb,1,vpnl,2024-01-23_10h30.06.189,alternatingbabyloc,2023.2.2,92.80284602113461,
,,,,,,,,,7517.998978693999,51,scenes-78.jpg,,pilotbb,1,vpnl,2024-01-23_10h30.06.189,alternatingbabyloc,2023.2.2,92.80284602113461,
,,,,,,,,,7518.498802407004,51,scenes-79.jpg,,pilotbb,1,vpnl,2024-01-23_10h30.06.189,alternatingbabyloc,2023.2.2,92.80284602113461,
,,,,,,,,,7518.998848446005,51,scenes-80.jpg,,pilotbb,1,vpnl,2024-01-23_10h30.06.189,alternatingbabyloc,2023.2.2,92.80284602113461,
,,,,,,,,,7519.498849664,52,hands-81.jpg,,pilotbb,1,vpnl,2024-01-23_10h30.06.189,alternatingbabyloc,2023.2.2,92.80284602113461,
,,,,,,,,,7519.99871092799,52,hands-82.jpg,,pilotbb,1,vpnl,2024-01-23_10h30.06.189,alternatingbabyloc,2023.2.2,92.80284602113461,
,,,,,,,,,7520.498602608015,52,hands-83.jpg,,pilotbb,1,vpnl,2024-01-23_10h30.06.189,alternatingbabyloc,2023.2.2,92.80284602113461,
,,,,,,,,,7520.999122579,52,hands-84.jpg,,pilotbb,1,vpnl,2024-01-23_10h30.06.189,alternatingbabyloc,2023.2.2,92.80284602113461,
,,,,,,,,,7521.499782580009,52,hands-85.jpg,,pilotbb,1,vpnl,2024-01-23_10h30.06.189,alternatingbabyloc,2023.2.2,92.80284602113461,
,,,,,,,,,7521.998197242996,52,hands-86.jpg,,pilotbb,1,vpnl,2024-01-23_10h30.06.189,alternatingbabyloc,2023.2.2,92.80284602113461,
,,,,,,,,,7522.499998023006,52,hands-87.jpg,,pilotbb,1,vpnl,2024-01-23_10h30.06.189,alternatingbabyloc,2023.2.2,92.80284602113461,
,,,,,,,,,7523.000181406998,52,hands-88.jpg,,pilotbb,1,vpnl,2024-01-23_10h30.06.189,alternatingbabyloc,2023.2.2,92.80284602113461,
,,,,,,,,,7523.498716659,53,scenes-81.jpg,,pilotbb,1,vpnl,2024-01-23_10h30.06.189,alternatingbabyloc,2023.2.2,92.80284602113461,
,,,,,,,,,7524.000733974011,53,scenes-82.jpg,,pilotbb,1,vpnl,2024-01-23_10h30.06.189,alternatingbabyloc,2023.2.2,92.80284602113461,
,,,,,,,,,7524.499122561014,53,scenes-83.jpg,,pilotbb,1,vpnl,2024-01-23_10h30.06.189,alternatingbabyloc,2023.2.2,92.80284602113461,
,,,,,,,,,7524.998731989006,53,scenes-84.jpg,,pilotbb,1,vpnl,2024-01-23_10h30.06.189,alternatingbabyloc,2023.2.2,92.80284602113461,
,,,,,,,,,7525.49881284,53,scenes-85.jpg,,pilotbb,1,vpnl,2024-01-23_10h30.06.189,alternatingbabyloc,2023.2.2,92.80284602113461,
,,,,,,,,,7525.9992741830065,53,scenes-86.jpg,,pilotbb,1,vpnl,2024-01-23_10h30.06.189,alternatingbabyloc,2023.2.2,92.80284602113461,
,,,,,,,,,7526.500752960012,53,scenes-87.jpg,,pilotbb,1,vpnl,2024-01-23_10h30.06.189,alternatingbabyloc,2023.2.2,92.80284602113461,
,,,,,,,,,7527.000967047003,53,scenes-88.jpg,,pilotbb,1,vpnl,2024-01-23_10h30.06.189,alternatingbabyloc,2023.2.2,92.80284602113461,
,,,,,,,,,7527.5007169989985,54,faces-81.jpg,,pilotbb,1,vpnl,2024-01-23_10h30.06.189,alternatingbabyloc,2023.2.2,92.80284602113461,
,,,,,,,,,7528.001455245016,54,faces-82.jpg,,pilotbb,1,vpnl,2024-01-23_10h30.06.189,alternatingbabyloc,2023.2.2,92.80284602113461,
,,,,,,,,,7528.5008545320015,54,faces-83.jpg,,pilotbb,1,vpnl,2024-01-23_10h30.06.189,alternatingbabyloc,2023.2.2,92.80284602113461,
,,,,,,,,,7529.00109177499,54,faces-84.jpg,,pilotbb,1,vpnl,2024-01-23_10h30.06.189,alternatingbabyloc,2023.2.2,92.80284602113461,
,,,,,,,,,7529.502272204991,54,faces-85.jpg,,pilotbb,1,vpnl,2024-01-23_10h30.06.189,alternatingbabyloc,2023.2.2,92.80284602113461,
,,,,,,,,,7530.002327526017,54,faces-86.jpg,,pilotbb,1,vpnl,2024-01-23_10h30.06.189,alternatingbabyloc,2023.2.2,92.80284602113461,
,,,,,,,,,7530.501455632999,54,faces-87.jpg,,pilotbb,1,vpnl,2024-01-23_10h30.06.189,alternatingbabyloc,2023.2.2,92.80284602113461,
,,,,,,,,,7531.001057096,54,faces-88.jpg,,pilotbb,1,vpnl,2024-01-23_10h30.06.189,alternatingbabyloc,2023.2.2,92.80284602113461,
,,,,,,,,,7531.500878282008,55,cars-81.jpg,,pilotbb,1,vpnl,2024-01-23_10h30.06.189,alternatingbabyloc,2023.2.2,92.80284602113461,
,,,,,,,,,7532.002199350012,55,cars-82.jpg,,pilotbb,1,vpnl,2024-01-23_10h30.06.189,alternatingbabyloc,2023.2.2,92.80284602113461,
,,,,,,,,,7532.50078861299,55,cars-83.jpg,,pilotbb,1,vpnl,2024-01-23_10h30.06.189,alternatingbabyloc,2023.2.2,92.80284602113461,
,,,,,,,,,7532.999856106995,55,cars-84.jpg,,pilotbb,1,vpnl,2024-01-23_10h30.06.189,alternatingbabyloc,2023.2.2,92.80284602113461,
,,,,,,,,,7533.5007130260055,55,cars-85.jpg,,pilotbb,1,vpnl,2024-01-23_10h30.06.189,alternatingbabyloc,2023.2.2,92.80284602113461,
,,,,,,,,,7534.000800078997,55,cars-86.jpg,,pilotbb,1,vpnl,2024-01-23_10h30.06.189,alternatingbabyloc,2023.2.2,92.80284602113461,
,,,,,,,,,7534.500749041006,55,cars-87.jpg,,pilotbb,1,vpnl,2024-01-23_10h30.06.189,alternatingbabyloc,2023.2.2,92.80284602113461,
,,,,,,,,,7535.000440553005,55,cars-88.jpg,,pilotbb,1,vpnl,2024-01-23_10h30.06.189,alternatingbabyloc,2023.2.2,92.80284602113461,
,,,,,,,,,7535.5007457610045,56,blank-89.jpg,,pilotbb,1,vpnl,2024-01-23_10h30.06.189,alternatingbabyloc,2023.2.2,92.80284602113461,
,,,,,,,,,7536.002272507991,56,blank-90.jpg,,pilotbb,1,vpnl,2024-01-23_10h30.06.189,alternatingbabyloc,2023.2.2,92.80284602113461,
,,,,,,,,,7536.502055257006,56,blank-91.jpg,,pilotbb,1,vpnl,2024-01-23_10h30.06.189,alternatingbabyloc,2023.2.2,92.80284602113461,
,,,,,,,,,7537.0005807889975,56,blank-92.jpg,,pilotbb,1,vpnl,2024-01-23_10h30.06.189,alternatingbabyloc,2023.2.2,92.80284602113461,
,,,,,,,,,7537.502961081016,56,blank-93.jpg,,pilotbb,1,vpnl,2024-01-23_10h30.06.189,alternatingbabyloc,2023.2.2,92.80284602113461,
,,,,,,,,,7538.001118176995,56,blank-94.jpg,,pilotbb,1,vpnl,2024-01-23_10h30.06.189,alternatingbabyloc,2023.2.2,92.80284602113461,
,,,,,,,,,7538.5002157510025,56,blank-95.jpg,,pilotbb,1,vpnl,2024-01-23_10h30.06.189,alternatingbabyloc,2023.2.2,92.80284602113461,
,,,,,,,,,7539.000859271007,56,blank-96.jpg,,pilotbb,1,vpnl,2024-01-23_10h30.06.189,alternatingbabyloc,2023.2.2,92.80284602113461,
,,,,,,,,,7539.501099018002,57,hands-89.jpg,,pilotbb,1,vpnl,2024-01-23_10h30.06.189,alternatingbabyloc,2023.2.2,92.80284602113461,
,,,,,,,,,7539.99996791,57,hands-90.jpg,,pilotbb,1,vpnl,2024-01-23_10h30.06.189,alternatingbabyloc,2023.2.2,92.80284602113461,
,,,,,,,,,7540.499979496002,57,hands-91.jpg,,pilotbb,1,vpnl,2024-01-23_10h30.06.189,alternatingbabyloc,2023.2.2,92.80284602113461,
,,,,,,,,,7541.000124525017,57,hands-92.jpg,,pilotbb,1,vpnl,2024-01-23_10h30.06.189,alternatingbabyloc,2023.2.2,92.80284602113461,
,,,,,,,,,7541.501882700017,57,hands-93.jpg,,pilotbb,1,vpnl,2024-01-23_10h30.06.189,alternatingbabyloc,2023.2.2,92.80284602113461,
,,,,,,,,,7542.000635492004,57,hands-94.jpg,,pilotbb,1,vpnl,2024-01-23_10h30.06.189,alternatingbabyloc,2023.2.2,92.80284602113461,
,,,,,,,,,7542.500958818011,57,hands-95.jpg,,pilotbb,1,vpnl,2024-01-23_10h30.06.189,alternatingbabyloc,2023.2.2,92.80284602113461,
,,,,,,,,,7542.9980281369935,57,hands-96.jpg,,pilotbb,1,vpnl,2024-01-23_10h30.06.189,alternatingbabyloc,2023.2.2,92.80284602113461,
,,,,,,,,,7543.497854681016,58,faces-89.jpg,,pilotbb,1,vpnl,2024-01-23_10h30.06.189,alternatingbabyloc,2023.2.2,92.80284602113461,
,,,,,,,,,7543.9980504190025,58,faces-90.jpg,,pilotbb,1,vpnl,2024-01-23_10h30.06.189,alternatingbabyloc,2023.2.2,92.80284602113461,
,,,,,,,,,7544.50003108001,58,faces-91.jpg,,pilotbb,1,vpnl,2024-01-23_10h30.06.189,alternatingbabyloc,2023.2.2,92.80284602113461,
,,,,,,,,,7545.000483751006,58,faces-92.jpg,,pilotbb,1,vpnl,2024-01-23_10h30.06.189,alternatingbabyloc,2023.2.2,92.80284602113461,
,,,,,,,,,7545.497812509013,58,faces-93.jpg,,pilotbb,1,vpnl,2024-01-23_10h30.06.189,alternatingbabyloc,2023.2.2,92.80284602113461,
,,,,,,,,,7545.998344555992,58,faces-94.jpg,,pilotbb,1,vpnl,2024-01-23_10h30.06.189,alternatingbabyloc,2023.2.2,92.80284602113461,
,,,,,,,,,7546.497765481996,58,faces-95.jpg,,pilotbb,1,vpnl,2024-01-23_10h30.06.189,alternatingbabyloc,2023.2.2,92.80284602113461,
,,,,,,,,,7546.999482457992,58,faces-96.jpg,,pilotbb,1,vpnl,2024-01-23_10h30.06.189,alternatingbabyloc,2023.2.2,92.80284602113461,
,,,,,,,,,7547.49858202599,59,blank-97.jpg,,pilotbb,1,vpnl,2024-01-23_10h30.06.189,alternatingbabyloc,2023.2.2,92.80284602113461,
,,,,,,,,,7547.997834551992,59,blank-98.jpg,,pilotbb,1,vpnl,2024-01-23_10h30.06.189,alternatingbabyloc,2023.2.2,92.80284602113461,
,,,,,,,,,7548.49802227199,59,blank-99.jpg,,pilotbb,1,vpnl,2024-01-23_10h30.06.189,alternatingbabyloc,2023.2.2,92.80284602113461,
,,,,,,,,,7548.997823754005,59,blank-100.jpg,,pilotbb,1,vpnl,2024-01-23_10h30.06.189,alternatingbabyloc,2023.2.2,92.80284602113461,
,,,,,,,,,7549.498088107997,59,blank-101.jpg,,pilotbb,1,vpnl,2024-01-23_10h30.06.189,alternatingbabyloc,2023.2.2,92.80284602113461,
,,,,,,,,,7549.99761644,59,blank-102.jpg,,pilotbb,1,vpnl,2024-01-23_10h30.06.189,alternatingbabyloc,2023.2.2,92.80284602113461,
,,,,,,,,,7550.4986233650125,59,blank-103.jpg,,pilotbb,1,vpnl,2024-01-23_10h30.06.189,alternatingbabyloc,2023.2.2,92.80284602113461,
,,,,,,,,,7550.997738033009,59,blank-104.jpg,,pilotbb,1,vpnl,2024-01-23_10h30.06.189,alternatingbabyloc,2023.2.2,92.80284602113461,
,,,,,,,,,7551.497844825004,60,scenes-89.jpg,,pilotbb,1,vpnl,2024-01-23_10h30.06.189,alternatingbabyloc,2023.2.2,92.80284602113461,
,,,,,,,,,7551.997966185998,60,scenes-90.jpg,,pilotbb,1,vpnl,2024-01-23_10h30.06.189,alternatingbabyloc,2023.2.2,92.80284602113461,
,,,,,,,,,7552.497774196003,60,scenes-91.jpg,,pilotbb,1,vpnl,2024-01-23_10h30.06.189,alternatingbabyloc,2023.2.2,92.80284602113461,
,,,,,,,,,7552.997653530008,60,scenes-92.jpg,,pilotbb,1,vpnl,2024-01-23_10h30.06.189,alternatingbabyloc,2023.2.2,92.80284602113461,
,,,,,,,,,7553.497962655005,60,scenes-93.jpg,,pilotbb,1,vpnl,2024-01-23_10h30.06.189,alternatingbabyloc,2023.2.2,92.80284602113461,
,,,,,,,,,7553.997684255999,60,scenes-94.jpg,,pilotbb,1,vpnl,2024-01-23_10h30.06.189,alternatingbabyloc,2023.2.2,92.80284602113461,
,,,,,,,,,7554.498960813013,60,scenes-95.jpg,,pilotbb,1,vpnl,2024-01-23_10h30.06.189,alternatingbabyloc,2023.2.2,92.80284602113461,
,,,,,,,,,7554.997564087011,60,scenes-96.jpg,,pilotbb,1,vpnl,2024-01-23_10h30.06.189,alternatingbabyloc,2023.2.2,92.80284602113461,
,,,,,,,,,7555.497629335005,61,cars-89.jpg,,pilotbb,1,vpnl,2024-01-23_10h30.06.189,alternatingbabyloc,2023.2.2,92.80284602113461,
,,,,,,,,,7555.9976498780015,61,cars-90.jpg,,pilotbb,1,vpnl,2024-01-23_10h30.06.189,alternatingbabyloc,2023.2.2,92.80284602113461,
,,,,,,,,,7556.497759794991,61,cars-91.jpg,,pilotbb,1,vpnl,2024-01-23_10h30.06.189,alternatingbabyloc,2023.2.2,92.80284602113461,
,,,,,,,,,7556.997908724996,61,cars-92.jpg,,pilotbb,1,vpnl,2024-01-23_10h30.06.189,alternatingbabyloc,2023.2.2,92.80284602113461,
,,,,,,,,,7557.4979758489935,61,cars-93.jpg,,pilotbb,1,vpnl,2024-01-23_10h30.06.189,alternatingbabyloc,2023.2.2,92.80284602113461,
,,,,,,,,,7557.997585780016,61,cars-94.jpg,,pilotbb,1,vpnl,2024-01-23_10h30.06.189,alternatingbabyloc,2023.2.2,92.80284602113461,
,,,,,,,,,7558.498239184002,61,cars-95.jpg,,pilotbb,1,vpnl,2024-01-23_10h30.06.189,alternatingbabyloc,2023.2.2,92.80284602113461,
,,,,,,,,,7558.997556746006,61,cars-96.jpg,,pilotbb,1,vpnl,2024-01-23_10h30.06.189,alternatingbabyloc,2023.2.2,92.80284602113461,
,,,,,,,,,7559.499967848009,62,blank-105.jpg,,pilotbb,1,vpnl,2024-01-23_10h30.06.189,alternatingbabyloc,2023.2.2,92.80284602113461,
,,,,,,,,,7560.000972803013,62,blank-106.jpg,,pilotbb,1,vpnl,2024-01-23_10h30.06.189,alternatingbabyloc,2023.2.2,92.80284602113461,
,,,,,,,,,7560.499515698,62,blank-107.jpg,,pilotbb,1,vpnl,2024-01-23_10h30.06.189,alternatingbabyloc,2023.2.2,92.80284602113461,
,,,,,,,,,7561.001087865996,62,blank-108.jpg,,pilotbb,1,vpnl,2024-01-23_10h30.06.189,alternatingbabyloc,2023.2.2,92.80284602113461,
,,,,,,,,,7561.501494525,62,blank-109.jpg,,pilotbb,1,vpnl,2024-01-23_10h30.06.189,alternatingbabyloc,2023.2.2,92.80284602113461,
,,,,,,,,,7561.999739799008,62,blank-110.jpg,,pilotbb,1,vpnl,2024-01-23_10h30.06.189,alternatingbabyloc,2023.2.2,92.80284602113461,
,,,,,,,,,7562.499840589007,62,blank-111.jpg,,pilotbb,1,vpnl,2024-01-23_10h30.06.189,alternatingbabyloc,2023.2.2,92.80284602113461,
,,,,,,,,,7563.0000482049945,62,blank-112.jpg,,pilotbb,1,vpnl,2024-01-23_10h30.06.189,alternatingbabyloc,2023.2.2,92.80284602113461,
