thisRow.t,notes,waiting_for_trigger_text.started,trigger.started,trigger.keys,trigger.rt,countdown.started,trial.stopped,stimuli.started,condition,stim_name,participant,run,user,date,expName,psychopyVersion,frameRate,
,,183.4329036679992,183.4329036679992,t,20.198202487001254,,,,,,bb98,1,vpnl,2024-02-18_14h49.12.185,shortbabyloc,2023.2.2,59.80044603156694,
,,,,,,203.6510719020007,26.227767235999636,209.66605089000223,1,blank-33.jpg,bb98,1,vpnl,2024-02-18_14h49.12.185,shortbabyloc,2023.2.2,59.80044603156694,
,,,,,,,,210.16717630499988,1,blank-34.jpg,bb98,1,vpnl,2024-02-18_14h49.12.185,shortbabyloc,2023.2.2,59.80044603156694,
,,,,,,,,210.66739850500016,1,blank-35.jpg,bb98,1,vpnl,2024-02-18_14h49.12.185,shortbabyloc,2023.2.2,59.80044603156694,
,,,,,,,,211.1659683229991,1,blank-36.jpg,bb98,1,vpnl,2024-02-18_14h49.12.185,shortbabyloc,2023.2.2,59.80044603156694,
,,,,,,,,211.6672713980006,1,blank-37.jpg,bb98,1,vpnl,2024-02-18_14h49.12.185,shortbabyloc,2023.2.2,59.80044603156694,
,,,,,,,,212.16579584400097,1,blank-38.jpg,bb98,1,vpnl,2024-02-18_14h49.12.185,shortbabyloc,2023.2.2,59.80044603156694,
,,,,,,,,212.667019282002,1,blank-39.jpg,bb98,1,vpnl,2024-02-18_14h49.12.185,shortbabyloc,2023.2.2,59.80044603156694,
,,,,,,,,213.1671369020005,1,blank-40.jpg,bb98,1,vpnl,2024-02-18_14h49.12.185,shortbabyloc,2023.2.2,59.80044603156694,
,,,,,,,,213.66588101399975,2,hands-33.jpg,bb98,1,vpnl,2024-02-18_14h49.12.185,shortbabyloc,2023.2.2,59.80044603156694,
,,,,,,,,214.16721857200173,2,hands-34.jpg,bb98,1,vpnl,2024-02-18_14h49.12.185,shortbabyloc,2023.2.2,59.80044603156694,
,,,,,,,,214.66710407600112,2,hands-35.jpg,bb98,1,vpnl,2024-02-18_14h49.12.185,shortbabyloc,2023.2.2,59.80044603156694,
,,,,,,,,215.16618294900036,2,hands-36.jpg,bb98,1,vpnl,2024-02-18_14h49.12.185,shortbabyloc,2023.2.2,59.80044603156694,
,,,,,,,,215.6671988599992,2,hands-37.jpg,bb98,1,vpnl,2024-02-18_14h49.12.185,shortbabyloc,2023.2.2,59.80044603156694,
,,,,,,,,216.1668133730018,2,hands-38.jpg,bb98,1,vpnl,2024-02-18_14h49.12.185,shortbabyloc,2023.2.2,59.80044603156694,
,,,,,,,,216.66556734000187,2,hands-39.jpg,bb98,1,vpnl,2024-02-18_14h49.12.185,shortbabyloc,2023.2.2,59.80044603156694,
,,,,,,,,217.16686690600181,2,hands-40.jpg,bb98,1,vpnl,2024-02-18_14h49.12.185,shortbabyloc,2023.2.2,59.80044603156694,
,,,,,,,,217.66674309399968,3,blank-41.jpg,bb98,1,vpnl,2024-02-18_14h49.12.185,shortbabyloc,2023.2.2,59.80044603156694,
,,,,,,,,218.16693143900193,3,blank-42.jpg,bb98,1,vpnl,2024-02-18_14h49.12.185,shortbabyloc,2023.2.2,59.80044603156694,
,,,,,,,,218.66681948900077,3,blank-43.jpg,bb98,1,vpnl,2024-02-18_14h49.12.185,shortbabyloc,2023.2.2,59.80044603156694,
,,,,,,,,219.16684485000224,3,blank-44.jpg,bb98,1,vpnl,2024-02-18_14h49.12.185,shortbabyloc,2023.2.2,59.80044603156694,
,,,,,,,,219.66682594300073,3,blank-45.jpg,bb98,1,vpnl,2024-02-18_14h49.12.185,shortbabyloc,2023.2.2,59.80044603156694,
,,,,,,,,220.16690242500044,3,blank-46.jpg,bb98,1,vpnl,2024-02-18_14h49.12.185,shortbabyloc,2023.2.2,59.80044603156694,
,,,,,,,,220.66616085699934,3,blank-47.jpg,bb98,1,vpnl,2024-02-18_14h49.12.185,shortbabyloc,2023.2.2,59.80044603156694,
,,,,,,,,221.16672435299915,3,blank-48.jpg,bb98,1,vpnl,2024-02-18_14h49.12.185,shortbabyloc,2023.2.2,59.80044603156694,
,,,,,,,,221.66677385599905,4,faces-33.jpg,bb98,1,vpnl,2024-02-18_14h49.12.185,shortbabyloc,2023.2.2,59.80044603156694,
,,,,,,,,222.166774461999,4,faces-34.jpg,bb98,1,vpnl,2024-02-18_14h49.12.185,shortbabyloc,2023.2.2,59.80044603156694,
,,,,,,,,222.66658488699977,4,faces-35.jpg,bb98,1,vpnl,2024-02-18_14h49.12.185,shortbabyloc,2023.2.2,59.80044603156694,
,,,,,,,,223.16705778699907,4,faces-36.jpg,bb98,1,vpnl,2024-02-18_14h49.12.185,shortbabyloc,2023.2.2,59.80044603156694,
,,,,,,,,223.66674516700004,4,faces-37.jpg,bb98,1,vpnl,2024-02-18_14h49.12.185,shortbabyloc,2023.2.2,59.80044603156694,
,,,,,,,,224.16695914400043,4,faces-38.jpg,bb98,1,vpnl,2024-02-18_14h49.12.185,shortbabyloc,2023.2.2,59.80044603156694,
,,,,,,,,224.66690519700205,4,faces-39.jpg,bb98,1,vpnl,2024-02-18_14h49.12.185,shortbabyloc,2023.2.2,59.80044603156694,
,,,,,,,,225.1669187610023,4,faces-40.jpg,bb98,1,vpnl,2024-02-18_14h49.12.185,shortbabyloc,2023.2.2,59.80044603156694,
,,,,,,,,225.66572229300073,5,scenes-33.jpg,bb98,1,vpnl,2024-02-18_14h49.12.185,shortbabyloc,2023.2.2,59.80044603156694,
,,,,,,,,226.1668411460014,5,scenes-34.jpg,bb98,1,vpnl,2024-02-18_14h49.12.185,shortbabyloc,2023.2.2,59.80044603156694,
,,,,,,,,226.6668054210022,5,scenes-35.jpg,bb98,1,vpnl,2024-02-18_14h49.12.185,shortbabyloc,2023.2.2,59.80044603156694,
,,,,,,,,227.1668710289996,5,scenes-36.jpg,bb98,1,vpnl,2024-02-18_14h49.12.185,shortbabyloc,2023.2.2,59.80044603156694,
,,,,,,,,227.66687614400144,5,scenes-37.jpg,bb98,1,vpnl,2024-02-18_14h49.12.185,shortbabyloc,2023.2.2,59.80044603156694,
,,,,,,,,228.16678349699941,5,scenes-38.jpg,bb98,1,vpnl,2024-02-18_14h49.12.185,shortbabyloc,2023.2.2,59.80044603156694,
,,,,,,,,228.66547899900252,5,scenes-39.jpg,bb98,1,vpnl,2024-02-18_14h49.12.185,shortbabyloc,2023.2.2,59.80044603156694,
,,,,,,,,229.16675127000053,5,scenes-40.jpg,bb98,1,vpnl,2024-02-18_14h49.12.185,shortbabyloc,2023.2.2,59.80044603156694,
,,,,,,,,229.6668802940003,6,cars-33.jpg,bb98,1,vpnl,2024-02-18_14h49.12.185,shortbabyloc,2023.2.2,59.80044603156694,
,,,,,,,,230.16699594999955,6,cars-34.jpg,bb98,1,vpnl,2024-02-18_14h49.12.185,shortbabyloc,2023.2.2,59.80044603156694,
,,,,,,,,230.66685187300027,6,cars-35.jpg,bb98,1,vpnl,2024-02-18_14h49.12.185,shortbabyloc,2023.2.2,59.80044603156694,
,,,,,,,,231.16621316099918,6,cars-36.jpg,bb98,1,vpnl,2024-02-18_14h49.12.185,shortbabyloc,2023.2.2,59.80044603156694,
,,,,,,,,231.6665787330021,6,cars-37.jpg,bb98,1,vpnl,2024-02-18_14h49.12.185,shortbabyloc,2023.2.2,59.80044603156694,
,,,,,,,,232.1658120989996,6,cars-38.jpg,bb98,1,vpnl,2024-02-18_14h49.12.185,shortbabyloc,2023.2.2,59.80044603156694,
,,,,,,,,232.66485386800196,6,cars-39.jpg,bb98,1,vpnl,2024-02-18_14h49.12.185,shortbabyloc,2023.2.2,59.80044603156694,
,,,,,,,,233.1657240280001,6,cars-40.jpg,bb98,1,vpnl,2024-02-18_14h49.12.185,shortbabyloc,2023.2.2,59.80044603156694,
,,,,,,,,233.671070761,7,blank-49.jpg,bb98,1,vpnl,2024-02-18_14h49.12.185,shortbabyloc,2023.2.2,59.80044603156694,
,,,,,,,,234.16675075199964,7,blank-50.jpg,bb98,1,vpnl,2024-02-18_14h49.12.185,shortbabyloc,2023.2.2,59.80044603156694,
,,,,,,,,234.6659090180001,7,blank-51.jpg,bb98,1,vpnl,2024-02-18_14h49.12.185,shortbabyloc,2023.2.2,59.80044603156694,
,,,,,,,,235.16572400400037,7,blank-52.jpg,bb98,1,vpnl,2024-02-18_14h49.12.185,shortbabyloc,2023.2.2,59.80044603156694,
,,,,,,,,235.66663221999988,7,blank-53.jpg,bb98,1,vpnl,2024-02-18_14h49.12.185,shortbabyloc,2023.2.2,59.80044603156694,
,,,,,,,,236.1658170030023,7,blank-54.jpg,bb98,1,vpnl,2024-02-18_14h49.12.185,shortbabyloc,2023.2.2,59.80044603156694,
,,,,,,,,236.66696528399916,7,blank-55.jpg,bb98,1,vpnl,2024-02-18_14h49.12.185,shortbabyloc,2023.2.2,59.80044603156694,
,,,,,,,,237.16667220700037,7,blank-56.jpg,bb98,1,vpnl,2024-02-18_14h49.12.185,shortbabyloc,2023.2.2,59.80044603156694,
,,,,,,,,237.66535954900246,8,scenes-41.jpg,bb98,1,vpnl,2024-02-18_14h49.12.185,shortbabyloc,2023.2.2,59.80044603156694,
,,,,,,,,238.1659125490005,8,scenes-42.jpg,bb98,1,vpnl,2024-02-18_14h49.12.185,shortbabyloc,2023.2.2,59.80044603156694,
,,,,,,,,238.66542707500048,8,scenes-43.jpg,bb98,1,vpnl,2024-02-18_14h49.12.185,shortbabyloc,2023.2.2,59.80044603156694,
,,,,,,,,239.16683034699963,8,scenes-44.jpg,bb98,1,vpnl,2024-02-18_14h49.12.185,shortbabyloc,2023.2.2,59.80044603156694,
,,,,,,,,239.66623602800246,8,scenes-45.jpg,bb98,1,vpnl,2024-02-18_14h49.12.185,shortbabyloc,2023.2.2,59.80044603156694,
,,,,,,,,240.16574867899908,8,scenes-46.jpg,bb98,1,vpnl,2024-02-18_14h49.12.185,shortbabyloc,2023.2.2,59.80044603156694,
,,,,,,,,240.66592708300232,8,scenes-47.jpg,bb98,1,vpnl,2024-02-18_14h49.12.185,shortbabyloc,2023.2.2,59.80044603156694,
,,,,,,,,241.1655826669994,8,scenes-48.jpg,bb98,1,vpnl,2024-02-18_14h49.12.185,shortbabyloc,2023.2.2,59.80044603156694,
,,,,,,,,241.66635389799922,9,hands-41.jpg,bb98,1,vpnl,2024-02-18_14h49.12.185,shortbabyloc,2023.2.2,59.80044603156694,
,,,,,,,,242.16565482700025,9,hands-42.jpg,bb98,1,vpnl,2024-02-18_14h49.12.185,shortbabyloc,2023.2.2,59.80044603156694,
,,,,,,,,242.6666431750018,9,hands-43.jpg,bb98,1,vpnl,2024-02-18_14h49.12.185,shortbabyloc,2023.2.2,59.80044603156694,
,,,,,,,,243.16639900700102,9,hands-44.jpg,bb98,1,vpnl,2024-02-18_14h49.12.185,shortbabyloc,2023.2.2,59.80044603156694,
,,,,,,,,243.66659286499998,9,hands-45.jpg,bb98,1,vpnl,2024-02-18_14h49.12.185,shortbabyloc,2023.2.2,59.80044603156694,
,,,,,,,,244.16565611800252,9,hands-46.jpg,bb98,1,vpnl,2024-02-18_14h49.12.185,shortbabyloc,2023.2.2,59.80044603156694,
,,,,,,,,244.66527061700253,9,hands-47.jpg,bb98,1,vpnl,2024-02-18_14h49.12.185,shortbabyloc,2023.2.2,59.80044603156694,
,,,,,,,,245.16659717800212,9,hands-48.jpg,bb98,1,vpnl,2024-02-18_14h49.12.185,shortbabyloc,2023.2.2,59.80044603156694,
,,,,,,,,245.67127124400213,10,faces-41.jpg,bb98,1,vpnl,2024-02-18_14h49.12.185,shortbabyloc,2023.2.2,59.80044603156694,
,,,,,,,,246.16534720300115,10,faces-42.jpg,bb98,1,vpnl,2024-02-18_14h49.12.185,shortbabyloc,2023.2.2,59.80044603156694,
,,,,,,,,246.66457391199947,10,faces-43.jpg,bb98,1,vpnl,2024-02-18_14h49.12.185,shortbabyloc,2023.2.2,59.80044603156694,
,,,,,,,,247.16550117000224,10,faces-44.jpg,bb98,1,vpnl,2024-02-18_14h49.12.185,shortbabyloc,2023.2.2,59.80044603156694,
,,,,,,,,247.66616276100103,10,faces-45.jpg,bb98,1,vpnl,2024-02-18_14h49.12.185,shortbabyloc,2023.2.2,59.80044603156694,
,,,,,,,,248.16561720400205,10,faces-46.jpg,bb98,1,vpnl,2024-02-18_14h49.12.185,shortbabyloc,2023.2.2,59.80044603156694,
,,,,,,,,248.66617656699964,10,faces-47.jpg,bb98,1,vpnl,2024-02-18_14h49.12.185,shortbabyloc,2023.2.2,59.80044603156694,
,,,,,,,,249.16631506799968,10,faces-48.jpg,bb98,1,vpnl,2024-02-18_14h49.12.185,shortbabyloc,2023.2.2,59.80044603156694,
,,,,,,,,249.66473878000033,11,cars-41.jpg,bb98,1,vpnl,2024-02-18_14h49.12.185,shortbabyloc,2023.2.2,59.80044603156694,
,,,,,,,,250.1664487779999,11,cars-42.jpg,bb98,1,vpnl,2024-02-18_14h49.12.185,shortbabyloc,2023.2.2,59.80044603156694,
,,,,,,,,250.6655403090008,11,cars-43.jpg,bb98,1,vpnl,2024-02-18_14h49.12.185,shortbabyloc,2023.2.2,59.80044603156694,
,,,,,,,,251.16551759399954,11,cars-44.jpg,bb98,1,vpnl,2024-02-18_14h49.12.185,shortbabyloc,2023.2.2,59.80044603156694,
,,,,,,,,251.66608583999914,11,cars-45.jpg,bb98,1,vpnl,2024-02-18_14h49.12.185,shortbabyloc,2023.2.2,59.80044603156694,
,,,,,,,,252.16560386000128,11,cars-46.jpg,bb98,1,vpnl,2024-02-18_14h49.12.185,shortbabyloc,2023.2.2,59.80044603156694,
,,,,,,,,252.66633087300215,11,cars-47.jpg,bb98,1,vpnl,2024-02-18_14h49.12.185,shortbabyloc,2023.2.2,59.80044603156694,
,,,,,,,,253.16641915199943,11,cars-48.jpg,bb98,1,vpnl,2024-02-18_14h49.12.185,shortbabyloc,2023.2.2,59.80044603156694,
,,,,,,,,253.66540317900217,12,scenes-49.jpg,bb98,1,vpnl,2024-02-18_14h49.12.185,shortbabyloc,2023.2.2,59.80044603156694,
,,,,,,,,254.1665561810005,12,scenes-50.jpg,bb98,1,vpnl,2024-02-18_14h49.12.185,shortbabyloc,2023.2.2,59.80044603156694,
,,,,,,,,254.66542560000016,12,scenes-51.jpg,bb98,1,vpnl,2024-02-18_14h49.12.185,shortbabyloc,2023.2.2,59.80044603156694,
,,,,,,,,255.1658663950002,12,scenes-52.jpg,bb98,1,vpnl,2024-02-18_14h49.12.185,shortbabyloc,2023.2.2,59.80044603156694,
,,,,,,,,255.66657284300163,12,scenes-53.jpg,bb98,1,vpnl,2024-02-18_14h49.12.185,shortbabyloc,2023.2.2,59.80044603156694,
,,,,,,,,256.16551031900235,12,scenes-54.jpg,bb98,1,vpnl,2024-02-18_14h49.12.185,shortbabyloc,2023.2.2,59.80044603156694,
,,,,,,,,256.66644376000113,12,scenes-55.jpg,bb98,1,vpnl,2024-02-18_14h49.12.185,shortbabyloc,2023.2.2,59.80044603156694,
,,,,,,,,257.16658552599984,12,scenes-56.jpg,bb98,1,vpnl,2024-02-18_14h49.12.185,shortbabyloc,2023.2.2,59.80044603156694,
,,,,,,,,257.664976895001,13,cars-49.jpg,bb98,1,vpnl,2024-02-18_14h49.12.185,shortbabyloc,2023.2.2,59.80044603156694,
,,,,,,,,258.16642138099996,13,cars-50.jpg,bb98,1,vpnl,2024-02-18_14h49.12.185,shortbabyloc,2023.2.2,59.80044603156694,
,,,,,,,,258.66568172199914,13,cars-51.jpg,bb98,1,vpnl,2024-02-18_14h49.12.185,shortbabyloc,2023.2.2,59.80044603156694,
,,,,,,,,259.1655569140021,13,cars-52.jpg,bb98,1,vpnl,2024-02-18_14h49.12.185,shortbabyloc,2023.2.2,59.80044603156694,
,,,,,,,,259.66638391200104,13,cars-53.jpg,bb98,1,vpnl,2024-02-18_14h49.12.185,shortbabyloc,2023.2.2,59.80044603156694,
,,,,,,,,260.1656280930001,13,cars-54.jpg,bb98,1,vpnl,2024-02-18_14h49.12.185,shortbabyloc,2023.2.2,59.80044603156694,
,,,,,,,,260.6668440409994,13,cars-55.jpg,bb98,1,vpnl,2024-02-18_14h49.12.185,shortbabyloc,2023.2.2,59.80044603156694,
,,,,,,,,261.1662971049991,13,cars-56.jpg,bb98,1,vpnl,2024-02-18_14h49.12.185,shortbabyloc,2023.2.2,59.80044603156694,
,,,,,,,,261.6650812530024,14,hands-49.jpg,bb98,1,vpnl,2024-02-18_14h49.12.185,shortbabyloc,2023.2.2,59.80044603156694,
,,,,,,,,262.16611114600164,14,hands-50.jpg,bb98,1,vpnl,2024-02-18_14h49.12.185,shortbabyloc,2023.2.2,59.80044603156694,
,,,,,,,,262.6659582760003,14,hands-51.jpg,bb98,1,vpnl,2024-02-18_14h49.12.185,shortbabyloc,2023.2.2,59.80044603156694,
,,,,,,,,263.1653586680004,14,hands-52.jpg,bb98,1,vpnl,2024-02-18_14h49.12.185,shortbabyloc,2023.2.2,59.80044603156694,
,,,,,,,,263.66521953100164,14,hands-53.jpg,bb98,1,vpnl,2024-02-18_14h49.12.185,shortbabyloc,2023.2.2,59.80044603156694,
,,,,,,,,264.1661800639995,14,hands-54.jpg,bb98,1,vpnl,2024-02-18_14h49.12.185,shortbabyloc,2023.2.2,59.80044603156694,
,,,,,,,,264.66599428799964,14,hands-55.jpg,bb98,1,vpnl,2024-02-18_14h49.12.185,shortbabyloc,2023.2.2,59.80044603156694,
,,,,,,,,265.1653361710014,14,hands-56.jpg,bb98,1,vpnl,2024-02-18_14h49.12.185,shortbabyloc,2023.2.2,59.80044603156694,
,,,,,,,,265.6652170430025,15,blank-57.jpg,bb98,1,vpnl,2024-02-18_14h49.12.185,shortbabyloc,2023.2.2,59.80044603156694,
,,,,,,,,266.1662079779999,15,blank-58.jpg,bb98,1,vpnl,2024-02-18_14h49.12.185,shortbabyloc,2023.2.2,59.80044603156694,
,,,,,,,,266.6653100910007,15,blank-59.jpg,bb98,1,vpnl,2024-02-18_14h49.12.185,shortbabyloc,2023.2.2,59.80044603156694,
,,,,,,,,267.1660435490012,15,blank-60.jpg,bb98,1,vpnl,2024-02-18_14h49.12.185,shortbabyloc,2023.2.2,59.80044603156694,
,,,,,,,,267.66600338699936,15,blank-61.jpg,bb98,1,vpnl,2024-02-18_14h49.12.185,shortbabyloc,2023.2.2,59.80044603156694,
,,,,,,,,268.1649690539998,15,blank-62.jpg,bb98,1,vpnl,2024-02-18_14h49.12.185,shortbabyloc,2023.2.2,59.80044603156694,
,,,,,,,,268.66595161400255,15,blank-63.jpg,bb98,1,vpnl,2024-02-18_14h49.12.185,shortbabyloc,2023.2.2,59.80044603156694,
,,,,,,,,269.154549365001,15,blank-64.jpg,bb98,1,vpnl,2024-02-18_14h49.12.185,shortbabyloc,2023.2.2,59.80044603156694,
,,,,,,,,269.6658660819994,16,faces-49.jpg,bb98,1,vpnl,2024-02-18_14h49.12.185,shortbabyloc,2023.2.2,59.80044603156694,
,,,,,,,,270.1654174560026,16,faces-50.jpg,bb98,1,vpnl,2024-02-18_14h49.12.185,shortbabyloc,2023.2.2,59.80044603156694,
,,,,,,,,270.6651086660022,16,faces-51.jpg,bb98,1,vpnl,2024-02-18_14h49.12.185,shortbabyloc,2023.2.2,59.80044603156694,
,,,,,,,,271.1652004259995,16,faces-52.jpg,bb98,1,vpnl,2024-02-18_14h49.12.185,shortbabyloc,2023.2.2,59.80044603156694,
,,,,,,,,271.66573218100166,16,faces-53.jpg,bb98,1,vpnl,2024-02-18_14h49.12.185,shortbabyloc,2023.2.2,59.80044603156694,
,,,,,,,,272.1643894430017,16,faces-54.jpg,bb98,1,vpnl,2024-02-18_14h49.12.185,shortbabyloc,2023.2.2,59.80044603156694,
,,,,,,,,272.6660531410016,16,faces-55.jpg,bb98,1,vpnl,2024-02-18_14h49.12.185,shortbabyloc,2023.2.2,59.80044603156694,
,,,,,,,,273.16504893599995,16,faces-56.jpg,bb98,1,vpnl,2024-02-18_14h49.12.185,shortbabyloc,2023.2.2,59.80044603156694,
,,,,,,,,273.6650092070013,17,scenes-57.jpg,bb98,1,vpnl,2024-02-18_14h49.12.185,shortbabyloc,2023.2.2,59.80044603156694,
,,,,,,,,274.16606796700216,17,scenes-58.jpg,bb98,1,vpnl,2024-02-18_14h49.12.185,shortbabyloc,2023.2.2,59.80044603156694,
,,,,,,,,274.6650459250013,17,scenes-59.jpg,bb98,1,vpnl,2024-02-18_14h49.12.185,shortbabyloc,2023.2.2,59.80044603156694,
,,,,,,,,275.165146880001,17,scenes-60.jpg,bb98,1,vpnl,2024-02-18_14h49.12.185,shortbabyloc,2023.2.2,59.80044603156694,
,,,,,,,,275.6661396269992,17,scenes-61.jpg,bb98,1,vpnl,2024-02-18_14h49.12.185,shortbabyloc,2023.2.2,59.80044603156694,
,,,,,,,,276.16505892699934,17,scenes-62.jpg,bb98,1,vpnl,2024-02-18_14h49.12.185,shortbabyloc,2023.2.2,59.80044603156694,
,,,,,,,,276.6651030560024,17,scenes-63.jpg,bb98,1,vpnl,2024-02-18_14h49.12.185,shortbabyloc,2023.2.2,59.80044603156694,
,,,,,,,,277.16640605700013,17,scenes-64.jpg,bb98,1,vpnl,2024-02-18_14h49.12.185,shortbabyloc,2023.2.2,59.80044603156694,
,,,,,,,,277.6650955760015,18,hands-57.jpg,bb98,1,vpnl,2024-02-18_14h49.12.185,shortbabyloc,2023.2.2,59.80044603156694,
,,,,,,,,278.16513679200216,18,hands-58.jpg,bb98,1,vpnl,2024-02-18_14h49.12.185,shortbabyloc,2023.2.2,59.80044603156694,
,,,,,,,,278.66586111799916,18,hands-59.jpg,bb98,1,vpnl,2024-02-18_14h49.12.185,shortbabyloc,2023.2.2,59.80044603156694,
,,,,,,,,279.16479359200093,18,hands-60.jpg,bb98,1,vpnl,2024-02-18_14h49.12.185,shortbabyloc,2023.2.2,59.80044603156694,
,,,,,,,,279.6654223639998,18,hands-61.jpg,bb98,1,vpnl,2024-02-18_14h49.12.185,shortbabyloc,2023.2.2,59.80044603156694,
,,,,,,,,280.16617349900116,18,hands-62.jpg,bb98,1,vpnl,2024-02-18_14h49.12.185,shortbabyloc,2023.2.2,59.80044603156694,
,,,,,,,,280.6639933059996,18,hands-63.jpg,bb98,1,vpnl,2024-02-18_14h49.12.185,shortbabyloc,2023.2.2,59.80044603156694,
,,,,,,,,281.1658695980004,18,hands-64.jpg,bb98,1,vpnl,2024-02-18_14h49.12.185,shortbabyloc,2023.2.2,59.80044603156694,
,,,,,,,,281.6648546630022,19,blank-65.jpg,bb98,1,vpnl,2024-02-18_14h49.12.185,shortbabyloc,2023.2.2,59.80044603156694,
,,,,,,,,282.16492047800057,19,blank-66.jpg,bb98,1,vpnl,2024-02-18_14h49.12.185,shortbabyloc,2023.2.2,59.80044603156694,
,,,,,,,,282.66552101100024,19,blank-67.jpg,bb98,1,vpnl,2024-02-18_14h49.12.185,shortbabyloc,2023.2.2,59.80044603156694,
,,,,,,,,283.16524980100075,19,blank-68.jpg,bb98,1,vpnl,2024-02-18_14h49.12.185,shortbabyloc,2023.2.2,59.80044603156694,
,,,,,,,,283.66568633299903,19,blank-69.jpg,bb98,1,vpnl,2024-02-18_14h49.12.185,shortbabyloc,2023.2.2,59.80044603156694,
,,,,,,,,284.1648174229995,19,blank-70.jpg,bb98,1,vpnl,2024-02-18_14h49.12.185,shortbabyloc,2023.2.2,59.80044603156694,
,,,,,,,,284.6648540009992,19,blank-71.jpg,bb98,1,vpnl,2024-02-18_14h49.12.185,shortbabyloc,2023.2.2,59.80044603156694,
,,,,,,,,285.1659212580016,19,blank-72.jpg,bb98,1,vpnl,2024-02-18_14h49.12.185,shortbabyloc,2023.2.2,59.80044603156694,
,,,,,,,,285.6645964140007,20,cars-57.jpg,bb98,1,vpnl,2024-02-18_14h49.12.185,shortbabyloc,2023.2.2,59.80044603156694,
,,,,,,,,286.1656884410004,20,cars-58.jpg,bb98,1,vpnl,2024-02-18_14h49.12.185,shortbabyloc,2023.2.2,59.80044603156694,
,,,,,,,,286.66475605600135,20,cars-59.jpg,bb98,1,vpnl,2024-02-18_14h49.12.185,shortbabyloc,2023.2.2,59.80044603156694,
,,,,,,,,287.16475292500036,20,cars-60.jpg,bb98,1,vpnl,2024-02-18_14h49.12.185,shortbabyloc,2023.2.2,59.80044603156694,
,,,,,,,,287.6656243300022,20,cars-61.jpg,bb98,1,vpnl,2024-02-18_14h49.12.185,shortbabyloc,2023.2.2,59.80044603156694,
,,,,,,,,288.1656011410014,20,cars-62.jpg,bb98,1,vpnl,2024-02-18_14h49.12.185,shortbabyloc,2023.2.2,59.80044603156694,
,,,,,,,,288.6658309279992,20,cars-63.jpg,bb98,1,vpnl,2024-02-18_14h49.12.185,shortbabyloc,2023.2.2,59.80044603156694,
,,,,,,,,289.16567484500047,20,cars-64.jpg,bb98,1,vpnl,2024-02-18_14h49.12.185,shortbabyloc,2023.2.2,59.80044603156694,
,,,,,,,,289.6653313169991,21,faces-57.jpg,bb98,1,vpnl,2024-02-18_14h49.12.185,shortbabyloc,2023.2.2,59.80044603156694,
,,,,,,,,290.165094942,21,faces-58.jpg,bb98,1,vpnl,2024-02-18_14h49.12.185,shortbabyloc,2023.2.2,59.80044603156694,
,,,,,,,,290.66574274600134,21,faces-59.jpg,bb98,1,vpnl,2024-02-18_14h49.12.185,shortbabyloc,2023.2.2,59.80044603156694,
,,,,,,,,291.16479149099905,21,faces-60.jpg,bb98,1,vpnl,2024-02-18_14h49.12.185,shortbabyloc,2023.2.2,59.80044603156694,
,,,,,,,,291.66499103000024,21,faces-61.jpg,bb98,1,vpnl,2024-02-18_14h49.12.185,shortbabyloc,2023.2.2,59.80044603156694,
,,,,,,,,292.16525865400035,21,faces-62.jpg,bb98,1,vpnl,2024-02-18_14h49.12.185,shortbabyloc,2023.2.2,59.80044603156694,
,,,,,,,,292.66524927700084,21,faces-63.jpg,bb98,1,vpnl,2024-02-18_14h49.12.185,shortbabyloc,2023.2.2,59.80044603156694,
,,,,,,,,293.16588360899914,21,faces-64.jpg,bb98,1,vpnl,2024-02-18_14h49.12.185,shortbabyloc,2023.2.2,59.80044603156694,
,,,,,,,,293.66483836300176,22,blank-73.jpg,bb98,1,vpnl,2024-02-18_14h49.12.185,shortbabyloc,2023.2.2,59.80044603156694,
,,,,,,,,294.1648409469999,22,blank-74.jpg,bb98,1,vpnl,2024-02-18_14h49.12.185,shortbabyloc,2023.2.2,59.80044603156694,
,,,,,,,,294.6656988100003,22,blank-75.jpg,bb98,1,vpnl,2024-02-18_14h49.12.185,shortbabyloc,2023.2.2,59.80044603156694,
,,,,,,,,295.16505942599906,22,blank-76.jpg,bb98,1,vpnl,2024-02-18_14h49.12.185,shortbabyloc,2023.2.2,59.80044603156694,
,,,,,,,,295.6648839360023,22,blank-77.jpg,bb98,1,vpnl,2024-02-18_14h49.12.185,shortbabyloc,2023.2.2,59.80044603156694,
,,,,,,,,296.16554449600153,22,blank-78.jpg,bb98,1,vpnl,2024-02-18_14h49.12.185,shortbabyloc,2023.2.2,59.80044603156694,
,,,,,,,,296.66473109800063,22,blank-79.jpg,bb98,1,vpnl,2024-02-18_14h49.12.185,shortbabyloc,2023.2.2,59.80044603156694,
,,,,,,,,297.16473732899976,22,blank-80.jpg,bb98,1,vpnl,2024-02-18_14h49.12.185,shortbabyloc,2023.2.2,59.80044603156694,
