thisRow.t,notes,waiting_for_trigger_text.started,trigger.started,trigger.keys,trigger.rt,countdown.started,countdown.stopped,trial.stopped,stimuli.started,condition,stim_name,stimuli.stopped,participant,run,user,date,expName,psychopyVersion,frameRate,
,,24.875304273002257,24.875304273002257,t,10.880939590999333,,,,,,,,bb98,1,vpnl,2024-02-18_14h44.06.522,shortbabyloc,2023.2.2,59.75240336815739,
,,,,,,35.78368862100251,41.783469419999165,16.904105317000358,41.783469419999165,1,blank-1.jpg,42.283570301999134,bb98,1,vpnl,2024-02-18_14h44.06.522,shortbabyloc,2023.2.2,59.75240336815739,
,,,,,,,,,42.283570301999134,1,blank-2.jpg,42.783390832002624,bb98,1,vpnl,2024-02-18_14h44.06.522,shortbabyloc,2023.2.2,59.75240336815739,
,,,,,,,,,42.783390832002624,1,blank-3.jpg,43.284801819001586,bb98,1,vpnl,2024-02-18_14h44.06.522,shortbabyloc,2023.2.2,59.75240336815739,
,,,,,,,,,43.284801819001586,1,blank-4.jpg,,bb98,1,vpnl,2024-02-18_14h44.06.522,shortbabyloc,2023.2.2,59.75240336815739,
,,,,,,,,,43.80035696300183,1,blank-5.jpg,,bb98,1,vpnl,2024-02-18_14h44.06.522,shortbabyloc,2023.2.2,59.75240336815739,
,,,,,,,,,44.28430773900254,1,blank-6.jpg,44.783906583001226,bb98,1,vpnl,2024-02-18_14h44.06.522,shortbabyloc,2023.2.2,59.75240336815739,
,,,,,,,,,44.783906583001226,1,blank-7.jpg,45.283862718999444,bb98,1,vpnl,2024-02-18_14h44.06.522,shortbabyloc,2023.2.2,59.75240336815739,
,,,,,,,,,45.283862718999444,1,blank-8.jpg,45.78376508099973,bb98,1,vpnl,2024-02-18_14h44.06.522,shortbabyloc,2023.2.2,59.75240336815739,
,,,,,,,,,45.78376508099973,2,blank-9.jpg,46.2844729669996,bb98,1,vpnl,2024-02-18_14h44.06.522,shortbabyloc,2023.2.2,59.75240336815739,
,,,,,,,,,46.2844729669996,2,blank-10.jpg,46.78439058799995,bb98,1,vpnl,2024-02-18_14h44.06.522,shortbabyloc,2023.2.2,59.75240336815739,
,,,,,,,,,46.78439058799995,2,blank-11.jpg,47.2842906520018,bb98,1,vpnl,2024-02-18_14h44.06.522,shortbabyloc,2023.2.2,59.75240336815739,
,,,,,,,,,47.2842906520018,2,blank-12.jpg,47.78465434300233,bb98,1,vpnl,2024-02-18_14h44.06.522,shortbabyloc,2023.2.2,59.75240336815739,
,,,,,,,,,47.78465434300233,2,blank-13.jpg,48.28429720300119,bb98,1,vpnl,2024-02-18_14h44.06.522,shortbabyloc,2023.2.2,59.75240336815739,
,,,,,,,,,48.28429720300119,2,blank-14.jpg,48.78388169400205,bb98,1,vpnl,2024-02-18_14h44.06.522,shortbabyloc,2023.2.2,59.75240336815739,
,,,,,,,,,48.78388169400205,2,blank-15.jpg,49.28479056099968,bb98,1,vpnl,2024-02-18_14h44.06.522,shortbabyloc,2023.2.2,59.75240336815739,
,,,,,,,,,49.28479056099968,2,blank-16.jpg,49.78382895500181,bb98,1,vpnl,2024-02-18_14h44.06.522,shortbabyloc,2023.2.2,59.75240336815739,
,,,,,,,,,49.78382895500181,3,scenes-1.jpg,50.284070893001626,bb98,1,vpnl,2024-02-18_14h44.06.522,shortbabyloc,2023.2.2,59.75240336815739,
,,,,,,,,,50.284070893001626,3,scenes-2.jpg,50.78394761100208,bb98,1,vpnl,2024-02-18_14h44.06.522,shortbabyloc,2023.2.2,59.75240336815739,
,,,,,,,,,50.78394761100208,3,scenes-3.jpg,,bb98,1,vpnl,2024-02-18_14h44.06.522,shortbabyloc,2023.2.2,59.75240336815739,
,,,,,,,,,51.427981271001045,3,scenes-4.jpg,,bb98,1,vpnl,2024-02-18_14h44.06.522,shortbabyloc,2023.2.2,59.75240336815739,
,,,,,,,,,51.80050319899965,3,scenes-5.jpg,,bb98,1,vpnl,2024-02-18_14h44.06.522,shortbabyloc,2023.2.2,59.75240336815739,
,,,,,,,,,52.3008447659995,3,scenes-6.jpg,,bb98,1,vpnl,2024-02-18_14h44.06.522,shortbabyloc,2023.2.2,59.75240336815739,
,,,,,,,,,52.80070300200168,3,scenes-7.jpg,,bb98,1,vpnl,2024-02-18_14h44.06.522,shortbabyloc,2023.2.2,59.75240336815739,
,,,,,,,,,53.30080032100159,3,scenes-8.jpg,,bb98,1,vpnl,2024-02-18_14h44.06.522,shortbabyloc,2023.2.2,59.75240336815739,
,,,,,,,,,53.80099381900072,4,faces-1.jpg,,bb98,1,vpnl,2024-02-18_14h44.06.522,shortbabyloc,2023.2.2,59.75240336815739,
,,,,,,,,,54.300383695001074,4,faces-2.jpg,,bb98,1,vpnl,2024-02-18_14h44.06.522,shortbabyloc,2023.2.2,59.75240336815739,
,,,,,,,,,54.800774858002114,4,faces-3.jpg,,bb98,1,vpnl,2024-02-18_14h44.06.522,shortbabyloc,2023.2.2,59.75240336815739,
,,,,,,,,,55.300796499999706,4,faces-4.jpg,,bb98,1,vpnl,2024-02-18_14h44.06.522,shortbabyloc,2023.2.2,59.75240336815739,
,,,,,,,,,55.80078459300057,4,faces-5.jpg,,bb98,1,vpnl,2024-02-18_14h44.06.522,shortbabyloc,2023.2.2,59.75240336815739,
,,,,,,,,,56.30037215899938,4,faces-6.jpg,,bb98,1,vpnl,2024-02-18_14h44.06.522,shortbabyloc,2023.2.2,59.75240336815739,
,,,,,,,,,56.811677008001425,4,faces-7.jpg,,bb98,1,vpnl,2024-02-18_14h44.06.522,shortbabyloc,2023.2.2,59.75240336815739,
,,,,,,,,,57.287342317002185,4,faces-8.jpg,,bb98,1,vpnl,2024-02-18_14h44.06.522,shortbabyloc,2023.2.2,59.75240336815739,
,,,,,,,,,57.80038784000135,5,cars-1.jpg,,bb98,1,vpnl,2024-02-18_14h44.06.522,shortbabyloc,2023.2.2,59.75240336815739,
,,,,,,,,,58.30101551400003,5,cars-2.jpg,,bb98,1,vpnl,2024-02-18_14h44.06.522,shortbabyloc,2023.2.2,59.75240336815739,
,,,,,,,,,58.80079408000165,5,cars-3.jpg,,bb98,1,vpnl,2024-02-18_14h44.06.522,shortbabyloc,2023.2.2,59.75240336815739,
,,,,,,,,,59.300963501002116,5,cars-4.jpg,,bb98,1,vpnl,2024-02-18_14h44.06.522,shortbabyloc,2023.2.2,59.75240336815739,
,,,,,,,,,59.80123942700084,5,cars-5.jpg,,bb98,1,vpnl,2024-02-18_14h44.06.522,shortbabyloc,2023.2.2,59.75240336815739,
,,,,,,,,,60.35897652499989,5,cars-6.jpg,,bb98,1,vpnl,2024-02-18_14h44.06.522,shortbabyloc,2023.2.2,59.75240336815739,
,,,,,,,,,60.78397465500166,5,cars-7.jpg,61.28404510300243,bb98,1,vpnl,2024-02-18_14h44.06.522,shortbabyloc,2023.2.2,59.75240336815739,
,,,,,,,,,61.28404510300243,5,cars-8.jpg,61.78402699400249,bb98,1,vpnl,2024-02-18_14h44.06.522,shortbabyloc,2023.2.2,59.75240336815739,
,,,,,,,,,61.78402699400249,6,hands-1.jpg,62.28350676300033,bb98,1,vpnl,2024-02-18_14h44.06.522,shortbabyloc,2023.2.2,59.75240336815739,
,,,,,,,,,62.28350676300033,6,hands-2.jpg,62.784296564001124,bb98,1,vpnl,2024-02-18_14h44.06.522,shortbabyloc,2023.2.2,59.75240336815739,
,,,,,,,,,62.784296564001124,6,hands-3.jpg,63.28402051900048,bb98,1,vpnl,2024-02-18_14h44.06.522,shortbabyloc,2023.2.2,59.75240336815739,
,,,,,,,,,63.28402051900048,6,hands-4.jpg,63.78393497300203,bb98,1,vpnl,2024-02-18_14h44.06.522,shortbabyloc,2023.2.2,59.75240336815739,
,,,,,,,,,63.78393497300203,6,hands-5.jpg,64.28395569900022,bb98,1,vpnl,2024-02-18_14h44.06.522,shortbabyloc,2023.2.2,59.75240336815739,
,,,,,,,,,64.28395569900022,6,hands-6.jpg,64.78402906699921,bb98,1,vpnl,2024-02-18_14h44.06.522,shortbabyloc,2023.2.2,59.75240336815739,
,,,,,,,,,64.78402906699921,6,hands-7.jpg,65.2841628970018,bb98,1,vpnl,2024-02-18_14h44.06.522,shortbabyloc,2023.2.2,59.75240336815739,
,,,,,,,,,65.2841628970018,6,hands-8.jpg,,bb98,1,vpnl,2024-02-18_14h44.06.522,shortbabyloc,2023.2.2,59.75240336815739,
,,,,,,,,,65.78723391099993,7,faces-9.jpg,,bb98,1,vpnl,2024-02-18_14h44.06.522,shortbabyloc,2023.2.2,59.75240336815739,
,,,,,,,,,66.30058187100076,7,faces-10.jpg,,bb98,1,vpnl,2024-02-18_14h44.06.522,shortbabyloc,2023.2.2,59.75240336815739,
,,,,,,,,,66.80048606700075,7,faces-11.jpg,,bb98,1,vpnl,2024-02-18_14h44.06.522,shortbabyloc,2023.2.2,59.75240336815739,
,,,,,,,,,67.30078566000157,7,faces-12.jpg,,bb98,1,vpnl,2024-02-18_14h44.06.522,shortbabyloc,2023.2.2,59.75240336815739,
,,,,,,,,,67.8005988900004,7,faces-13.jpg,,bb98,1,vpnl,2024-02-18_14h44.06.522,shortbabyloc,2023.2.2,59.75240336815739,
,,,,,,,,,68.30069021899908,7,faces-14.jpg,,bb98,1,vpnl,2024-02-18_14h44.06.522,shortbabyloc,2023.2.2,59.75240336815739,
,,,,,,,,,68.80027433800205,7,faces-15.jpg,,bb98,1,vpnl,2024-02-18_14h44.06.522,shortbabyloc,2023.2.2,59.75240336815739,
,,,,,,,,,69.30029922500034,7,faces-16.jpg,,bb98,1,vpnl,2024-02-18_14h44.06.522,shortbabyloc,2023.2.2,59.75240336815739,
,,,,,,,,,69.80088781700033,8,scenes-9.jpg,,bb98,1,vpnl,2024-02-18_14h44.06.522,shortbabyloc,2023.2.2,59.75240336815739,
,,,,,,,,,70.30090092600221,8,scenes-10.jpg,,bb98,1,vpnl,2024-02-18_14h44.06.522,shortbabyloc,2023.2.2,59.75240336815739,
,,,,,,,,,70.80024600300021,8,scenes-11.jpg,,bb98,1,vpnl,2024-02-18_14h44.06.522,shortbabyloc,2023.2.2,59.75240336815739,
,,,,,,,,,71.30067075899933,8,scenes-12.jpg,,bb98,1,vpnl,2024-02-18_14h44.06.522,shortbabyloc,2023.2.2,59.75240336815739,
,,,,,,,,,71.80061381899941,8,scenes-13.jpg,,bb98,1,vpnl,2024-02-18_14h44.06.522,shortbabyloc,2023.2.2,59.75240336815739,
,,,,,,,,,72.29954118900059,8,scenes-14.jpg,,bb98,1,vpnl,2024-02-18_14h44.06.522,shortbabyloc,2023.2.2,59.75240336815739,
,,,,,,,,,72.800550123,8,scenes-15.jpg,,bb98,1,vpnl,2024-02-18_14h44.06.522,shortbabyloc,2023.2.2,59.75240336815739,
,,,,,,,,,73.30062874100258,8,scenes-16.jpg,,bb98,1,vpnl,2024-02-18_14h44.06.522,shortbabyloc,2023.2.2,59.75240336815739,
,,,,,,,,,73.800768694,9,cars-9.jpg,,bb98,1,vpnl,2024-02-18_14h44.06.522,shortbabyloc,2023.2.2,59.75240336815739,
,,,,,,,,,74.3007474110018,9,cars-10.jpg,,bb98,1,vpnl,2024-02-18_14h44.06.522,shortbabyloc,2023.2.2,59.75240336815739,
,,,,,,,,,74.80098415300017,9,cars-11.jpg,,bb98,1,vpnl,2024-02-18_14h44.06.522,shortbabyloc,2023.2.2,59.75240336815739,
,,,,,,,,,75.3002412829992,9,cars-12.jpg,,bb98,1,vpnl,2024-02-18_14h44.06.522,shortbabyloc,2023.2.2,59.75240336815739,
,,,,,,,,,75.80056937699919,9,cars-13.jpg,,bb98,1,vpnl,2024-02-18_14h44.06.522,shortbabyloc,2023.2.2,59.75240336815739,
,,,,,,,,,76.30073671699938,9,cars-14.jpg,,bb98,1,vpnl,2024-02-18_14h44.06.522,shortbabyloc,2023.2.2,59.75240336815739,
,,,,,,,,,76.80068978800045,9,cars-15.jpg,,bb98,1,vpnl,2024-02-18_14h44.06.522,shortbabyloc,2023.2.2,59.75240336815739,
,,,,,,,,,77.30122087800191,9,cars-16.jpg,,bb98,1,vpnl,2024-02-18_14h44.06.522,shortbabyloc,2023.2.2,59.75240336815739,
,,,,,,,,,77.78476047000004,10,blank-17.jpg,78.28447314000005,bb98,1,vpnl,2024-02-18_14h44.06.522,shortbabyloc,2023.2.2,59.75240336815739,
,,,,,,,,,78.28447314000005,10,blank-18.jpg,78.78447471999971,bb98,1,vpnl,2024-02-18_14h44.06.522,shortbabyloc,2023.2.2,59.75240336815739,
,,,,,,,,,78.78447471999971,10,blank-19.jpg,79.28453530700062,bb98,1,vpnl,2024-02-18_14h44.06.522,shortbabyloc,2023.2.2,59.75240336815739,
,,,,,,,,,79.28453530700062,10,blank-20.jpg,,bb98,1,vpnl,2024-02-18_14h44.06.522,shortbabyloc,2023.2.2,59.75240336815739,
,,,,,,,,,79.79981410099936,10,blank-21.jpg,,bb98,1,vpnl,2024-02-18_14h44.06.522,shortbabyloc,2023.2.2,59.75240336815739,
,,,,,,,,,80.3014890480008,10,blank-22.jpg,,bb98,1,vpnl,2024-02-18_14h44.06.522,shortbabyloc,2023.2.2,59.75240336815739,
,,,,,,,,,80.80139525800041,10,blank-23.jpg,,bb98,1,vpnl,2024-02-18_14h44.06.522,shortbabyloc,2023.2.2,59.75240336815739,
,,,,,,,,,81.2844905109996,10,blank-24.jpg,81.78456552699936,bb98,1,vpnl,2024-02-18_14h44.06.522,shortbabyloc,2023.2.2,59.75240336815739,
,,,,,,,,,81.78456552699936,11,hands-9.jpg,82.28468382600113,bb98,1,vpnl,2024-02-18_14h44.06.522,shortbabyloc,2023.2.2,59.75240336815739,
,,,,,,,,,82.28468382600113,11,hands-10.jpg,82.78442616400207,bb98,1,vpnl,2024-02-18_14h44.06.522,shortbabyloc,2023.2.2,59.75240336815739,
,,,,,,,,,82.78442616400207,11,hands-11.jpg,83.2842643820004,bb98,1,vpnl,2024-02-18_14h44.06.522,shortbabyloc,2023.2.2,59.75240336815739,
,,,,,,,,,83.2842643820004,11,hands-12.jpg,83.78389394600163,bb98,1,vpnl,2024-02-18_14h44.06.522,shortbabyloc,2023.2.2,59.75240336815739,
,,,,,,,,,83.78389394600163,11,hands-13.jpg,84.28426598100123,bb98,1,vpnl,2024-02-18_14h44.06.522,shortbabyloc,2023.2.2,59.75240336815739,
,,,,,,,,,84.28426598100123,11,hands-14.jpg,84.78391499300051,bb98,1,vpnl,2024-02-18_14h44.06.522,shortbabyloc,2023.2.2,59.75240336815739,
,,,,,,,,,84.78391499300051,11,hands-15.jpg,85.28450833900206,bb98,1,vpnl,2024-02-18_14h44.06.522,shortbabyloc,2023.2.2,59.75240336815739,
,,,,,,,,,85.28450833900206,11,hands-16.jpg,85.7843699719997,bb98,1,vpnl,2024-02-18_14h44.06.522,shortbabyloc,2023.2.2,59.75240336815739,
,,,,,,,,,85.7843699719997,12,cars-17.jpg,86.28439851599978,bb98,1,vpnl,2024-02-18_14h44.06.522,shortbabyloc,2023.2.2,59.75240336815739,
,,,,,,,,,86.28439851599978,12,cars-18.jpg,86.78434775700225,bb98,1,vpnl,2024-02-18_14h44.06.522,shortbabyloc,2023.2.2,59.75240336815739,
,,,,,,,,,86.78434775700225,12,cars-19.jpg,87.28394451400163,bb98,1,vpnl,2024-02-18_14h44.06.522,shortbabyloc,2023.2.2,59.75240336815739,
,,,,,,,,,87.28394451400163,12,cars-20.jpg,87.78324420900026,bb98,1,vpnl,2024-02-18_14h44.06.522,shortbabyloc,2023.2.2,59.75240336815739,
,,,,,,,,,87.78324420900026,12,cars-21.jpg,88.28457714800243,bb98,1,vpnl,2024-02-18_14h44.06.522,shortbabyloc,2023.2.2,59.75240336815739,
,,,,,,,,,88.28457714800243,12,cars-22.jpg,,bb98,1,vpnl,2024-02-18_14h44.06.522,shortbabyloc,2023.2.2,59.75240336815739,
,,,,,,,,,88.80097469800239,12,cars-23.jpg,,bb98,1,vpnl,2024-02-18_14h44.06.522,shortbabyloc,2023.2.2,59.75240336815739,
,,,,,,,,,89.3003939070004,12,cars-24.jpg,,bb98,1,vpnl,2024-02-18_14h44.06.522,shortbabyloc,2023.2.2,59.75240336815739,
,,,,,,,,,89.79999878200033,13,hands-17.jpg,,bb98,1,vpnl,2024-02-18_14h44.06.522,shortbabyloc,2023.2.2,59.75240336815739,
,,,,,,,,,90.30059726000036,13,hands-18.jpg,,bb98,1,vpnl,2024-02-18_14h44.06.522,shortbabyloc,2023.2.2,59.75240336815739,
,,,,,,,,,90.80090304500118,13,hands-19.jpg,,bb98,1,vpnl,2024-02-18_14h44.06.522,shortbabyloc,2023.2.2,59.75240336815739,
,,,,,,,,,91.30117636499926,13,hands-20.jpg,,bb98,1,vpnl,2024-02-18_14h44.06.522,shortbabyloc,2023.2.2,59.75240336815739,
,,,,,,,,,91.8003833570001,13,hands-21.jpg,,bb98,1,vpnl,2024-02-18_14h44.06.522,shortbabyloc,2023.2.2,59.75240336815739,
,,,,,,,,,92.30077377999987,13,hands-22.jpg,,bb98,1,vpnl,2024-02-18_14h44.06.522,shortbabyloc,2023.2.2,59.75240336815739,
,,,,,,,,,92.79923873000007,13,hands-23.jpg,,bb98,1,vpnl,2024-02-18_14h44.06.522,shortbabyloc,2023.2.2,59.75240336815739,
,,,,,,,,,93.3009723819996,13,hands-24.jpg,,bb98,1,vpnl,2024-02-18_14h44.06.522,shortbabyloc,2023.2.2,59.75240336815739,
,,,,,,,,,93.80463845700069,14,faces-17.jpg,,bb98,1,vpnl,2024-02-18_14h44.06.522,shortbabyloc,2023.2.2,59.75240336815739,
,,,,,,,,,94.30063106700254,14,faces-18.jpg,,bb98,1,vpnl,2024-02-18_14h44.06.522,shortbabyloc,2023.2.2,59.75240336815739,
,,,,,,,,,94.80069014500259,14,faces-19.jpg,,bb98,1,vpnl,2024-02-18_14h44.06.522,shortbabyloc,2023.2.2,59.75240336815739,
,,,,,,,,,95.30049924000195,14,faces-20.jpg,,bb98,1,vpnl,2024-02-18_14h44.06.522,shortbabyloc,2023.2.2,59.75240336815739,
,,,,,,,,,95.79985475700232,14,faces-21.jpg,,bb98,1,vpnl,2024-02-18_14h44.06.522,shortbabyloc,2023.2.2,59.75240336815739,
,,,,,,,,,96.28334346300107,14,faces-22.jpg,96.78265099599957,bb98,1,vpnl,2024-02-18_14h44.06.522,shortbabyloc,2023.2.2,59.75240336815739,
,,,,,,,,,96.78265099599957,14,faces-23.jpg,97.28390926300199,bb98,1,vpnl,2024-02-18_14h44.06.522,shortbabyloc,2023.2.2,59.75240336815739,
,,,,,,,,,97.28390926300199,14,faces-24.jpg,97.78381579699999,bb98,1,vpnl,2024-02-18_14h44.06.522,shortbabyloc,2023.2.2,59.75240336815739,
,,,,,,,,,97.78381579699999,15,scenes-17.jpg,98.28398143899904,bb98,1,vpnl,2024-02-18_14h44.06.522,shortbabyloc,2023.2.2,59.75240336815739,
,,,,,,,,,98.28398143899904,15,scenes-18.jpg,98.78360703699946,bb98,1,vpnl,2024-02-18_14h44.06.522,shortbabyloc,2023.2.2,59.75240336815739,
,,,,,,,,,98.78360703699946,15,scenes-19.jpg,,bb98,1,vpnl,2024-02-18_14h44.06.522,shortbabyloc,2023.2.2,59.75240336815739,
,,,,,,,,,99.2836762879997,15,scenes-20.jpg,99.78325410999969,bb98,1,vpnl,2024-02-18_14h44.06.522,shortbabyloc,2023.2.2,59.75240336815739,
,,,,,,,,,99.78325410999969,15,scenes-21.jpg,100.28377183500197,bb98,1,vpnl,2024-02-18_14h44.06.522,shortbabyloc,2023.2.2,59.75240336815739,
,,,,,,,,,100.28377183500197,15,scenes-22.jpg,100.7838048750018,bb98,1,vpnl,2024-02-18_14h44.06.522,shortbabyloc,2023.2.2,59.75240336815739,
,,,,,,,,,100.7838048750018,15,scenes-23.jpg,101.28260825699908,bb98,1,vpnl,2024-02-18_14h44.06.522,shortbabyloc,2023.2.2,59.75240336815739,
,,,,,,,,,101.28260825699908,15,scenes-24.jpg,101.78283074100182,bb98,1,vpnl,2024-02-18_14h44.06.522,shortbabyloc,2023.2.2,59.75240336815739,
,,,,,,,,,101.78283074100182,16,blank-25.jpg,102.28494023200255,bb98,1,vpnl,2024-02-18_14h44.06.522,shortbabyloc,2023.2.2,59.75240336815739,
,,,,,,,,,102.28494023200255,16,blank-26.jpg,,bb98,1,vpnl,2024-02-18_14h44.06.522,shortbabyloc,2023.2.2,59.75240336815739,
,,,,,,,,,102.80067514199982,16,blank-27.jpg,,bb98,1,vpnl,2024-02-18_14h44.06.522,shortbabyloc,2023.2.2,59.75240336815739,
,,,,,,,,,103.30062197699954,16,blank-28.jpg,,bb98,1,vpnl,2024-02-18_14h44.06.522,shortbabyloc,2023.2.2,59.75240336815739,
,,,,,,,,,103.78342401400005,16,blank-29.jpg,104.2828722680024,bb98,1,vpnl,2024-02-18_14h44.06.522,shortbabyloc,2023.2.2,59.75240336815739,
,,,,,,,,,104.2828722680024,16,blank-30.jpg,104.78378465700007,bb98,1,vpnl,2024-02-18_14h44.06.522,shortbabyloc,2023.2.2,59.75240336815739,
,,,,,,,,,104.78378465700007,16,blank-31.jpg,105.28537910399973,bb98,1,vpnl,2024-02-18_14h44.06.522,shortbabyloc,2023.2.2,59.75240336815739,
,,,,,,,,,105.28537910399973,16,blank-32.jpg,,bb98,1,vpnl,2024-02-18_14h44.06.522,shortbabyloc,2023.2.2,59.75240336815739,
,,,,,,,,,105.80060231800235,17,faces-25.jpg,,bb98,1,vpnl,2024-02-18_14h44.06.522,shortbabyloc,2023.2.2,59.75240336815739,
,,,,,,,,,106.30038110600071,17,faces-26.jpg,,bb98,1,vpnl,2024-02-18_14h44.06.522,shortbabyloc,2023.2.2,59.75240336815739,
,,,,,,,,,106.79969389100006,17,faces-27.jpg,,bb98,1,vpnl,2024-02-18_14h44.06.522,shortbabyloc,2023.2.2,59.75240336815739,
,,,,,,,,,107.29931484900226,17,faces-28.jpg,,bb98,1,vpnl,2024-02-18_14h44.06.522,shortbabyloc,2023.2.2,59.75240336815739,
,,,,,,,,,107.79963032100204,17,faces-29.jpg,,bb98,1,vpnl,2024-02-18_14h44.06.522,shortbabyloc,2023.2.2,59.75240336815739,
,,,,,,,,,108.29949748299987,17,faces-30.jpg,,bb98,1,vpnl,2024-02-18_14h44.06.522,shortbabyloc,2023.2.2,59.75240336815739,
,,,,,,,,,108.79956971000138,17,faces-31.jpg,,bb98,1,vpnl,2024-02-18_14h44.06.522,shortbabyloc,2023.2.2,59.75240336815739,
,,,,,,,,,109.29909596300058,17,faces-32.jpg,,bb98,1,vpnl,2024-02-18_14h44.06.522,shortbabyloc,2023.2.2,59.75240336815739,
,,,,,,,,,109.80015966599967,18,blank-33.jpg,,bb98,1,vpnl,2024-02-18_14h44.06.522,shortbabyloc,2023.2.2,59.75240336815739,
,,,,,,,,,110.29911021900261,18,blank-34.jpg,,bb98,1,vpnl,2024-02-18_14h44.06.522,shortbabyloc,2023.2.2,59.75240336815739,
,,,,,,,,,110.7998659440018,18,blank-35.jpg,,bb98,1,vpnl,2024-02-18_14h44.06.522,shortbabyloc,2023.2.2,59.75240336815739,
,,,,,,,,,111.2995961939996,18,blank-36.jpg,,bb98,1,vpnl,2024-02-18_14h44.06.522,shortbabyloc,2023.2.2,59.75240336815739,
,,,,,,,,,111.79953744600061,18,blank-37.jpg,,bb98,1,vpnl,2024-02-18_14h44.06.522,shortbabyloc,2023.2.2,59.75240336815739,
,,,,,,,,,112.3003890229993,18,blank-38.jpg,,bb98,1,vpnl,2024-02-18_14h44.06.522,shortbabyloc,2023.2.2,59.75240336815739,
,,,,,,,,,112.80040574799932,18,blank-39.jpg,,bb98,1,vpnl,2024-02-18_14h44.06.522,shortbabyloc,2023.2.2,59.75240336815739,
,,,,,,,,,113.30019547100164,18,blank-40.jpg,,bb98,1,vpnl,2024-02-18_14h44.06.522,shortbabyloc,2023.2.2,59.75240336815739,
,,,,,,,,,113.79992507700081,19,cars-25.jpg,,bb98,1,vpnl,2024-02-18_14h44.06.522,shortbabyloc,2023.2.2,59.75240336815739,
,,,,,,,,,114.29981906800094,19,cars-26.jpg,,bb98,1,vpnl,2024-02-18_14h44.06.522,shortbabyloc,2023.2.2,59.75240336815739,
,,,,,,,,,114.80028005400163,19,cars-27.jpg,,bb98,1,vpnl,2024-02-18_14h44.06.522,shortbabyloc,2023.2.2,59.75240336815739,
,,,,,,,,,115.2997155990015,19,cars-28.jpg,,bb98,1,vpnl,2024-02-18_14h44.06.522,shortbabyloc,2023.2.2,59.75240336815739,
,,,,,,,,,115.80033342599927,19,cars-29.jpg,,bb98,1,vpnl,2024-02-18_14h44.06.522,shortbabyloc,2023.2.2,59.75240336815739,
,,,,,,,,,116.29978762999963,19,cars-30.jpg,,bb98,1,vpnl,2024-02-18_14h44.06.522,shortbabyloc,2023.2.2,59.75240336815739,
,,,,,,,,,116.80007255500095,19,cars-31.jpg,,bb98,1,vpnl,2024-02-18_14h44.06.522,shortbabyloc,2023.2.2,59.75240336815739,
,,,,,,,,,117.29887291900013,19,cars-32.jpg,,bb98,1,vpnl,2024-02-18_14h44.06.522,shortbabyloc,2023.2.2,59.75240336815739,
,,,,,,,,,117.79941556800259,20,scenes-25.jpg,,bb98,1,vpnl,2024-02-18_14h44.06.522,shortbabyloc,2023.2.2,59.75240336815739,
,,,,,,,,,118.30009544700079,20,scenes-26.jpg,,bb98,1,vpnl,2024-02-18_14h44.06.522,shortbabyloc,2023.2.2,59.75240336815739,
,,,,,,,,,118.80006509400118,20,scenes-27.jpg,,bb98,1,vpnl,2024-02-18_14h44.06.522,shortbabyloc,2023.2.2,59.75240336815739,
,,,,,,,,,119.29946605200166,20,scenes-28.jpg,,bb98,1,vpnl,2024-02-18_14h44.06.522,shortbabyloc,2023.2.2,59.75240336815739,
,,,,,,,,,119.79927545100145,20,scenes-29.jpg,,bb98,1,vpnl,2024-02-18_14h44.06.522,shortbabyloc,2023.2.2,59.75240336815739,
,,,,,,,,,120.29936349399941,20,scenes-30.jpg,,bb98,1,vpnl,2024-02-18_14h44.06.522,shortbabyloc,2023.2.2,59.75240336815739,
,,,,,,,,,120.80022322700097,20,scenes-31.jpg,,bb98,1,vpnl,2024-02-18_14h44.06.522,shortbabyloc,2023.2.2,59.75240336815739,
,,,,,,,,,121.29934816899913,20,scenes-32.jpg,,bb98,1,vpnl,2024-02-18_14h44.06.522,shortbabyloc,2023.2.2,59.75240336815739,
,,,,,,,,,121.7992746130003,21,hands-25.jpg,,bb98,1,vpnl,2024-02-18_14h44.06.522,shortbabyloc,2023.2.2,59.75240336815739,
,,,,,,,,,122.30022911999913,21,hands-26.jpg,,bb98,1,vpnl,2024-02-18_14h44.06.522,shortbabyloc,2023.2.2,59.75240336815739,
,,,,,,,,,122.79943035100223,21,hands-27.jpg,,bb98,1,vpnl,2024-02-18_14h44.06.522,shortbabyloc,2023.2.2,59.75240336815739,
,,,,,,,,,123.29933714900108,21,hands-28.jpg,,bb98,1,vpnl,2024-02-18_14h44.06.522,shortbabyloc,2023.2.2,59.75240336815739,
,,,,,,,,,123.79893250399982,21,hands-29.jpg,,bb98,1,vpnl,2024-02-18_14h44.06.522,shortbabyloc,2023.2.2,59.75240336815739,
,,,,,,,,,124.2991585460004,21,hands-30.jpg,,bb98,1,vpnl,2024-02-18_14h44.06.522,shortbabyloc,2023.2.2,59.75240336815739,
,,,,,,,,,124.7997437390004,21,hands-31.jpg,,bb98,1,vpnl,2024-02-18_14h44.06.522,shortbabyloc,2023.2.2,59.75240336815739,
,,,,,,,,,125.29877058200145,21,hands-32.jpg,,bb98,1,vpnl,2024-02-18_14h44.06.522,shortbabyloc,2023.2.2,59.75240336815739,
,,,,,,,,,125.79906297600246,22,blank-41.jpg,,bb98,1,vpnl,2024-02-18_14h44.06.522,shortbabyloc,2023.2.2,59.75240336815739,
,,,,,,,,,126.30011259300227,22,blank-42.jpg,,bb98,1,vpnl,2024-02-18_14h44.06.522,shortbabyloc,2023.2.2,59.75240336815739,
,,,,,,,,,126.79987159400116,22,blank-43.jpg,,bb98,1,vpnl,2024-02-18_14h44.06.522,shortbabyloc,2023.2.2,59.75240336815739,
,,,,,,,,,127.29905491500176,22,blank-44.jpg,,bb98,1,vpnl,2024-02-18_14h44.06.522,shortbabyloc,2023.2.2,59.75240336815739,
,,,,,,,,,127.79917380299958,22,blank-45.jpg,,bb98,1,vpnl,2024-02-18_14h44.06.522,shortbabyloc,2023.2.2,59.75240336815739,
,,,,,,,,,128.29965861200253,22,blank-46.jpg,,,,,,,,,
