thisRow.t,notes,waiting_for_trigger_text.started,trigger.started,trigger.keys,trigger.rt,countdown.started,trial.stopped,stimuli.started,condition,stim_name,participant,run,user,date,expName,psychopyVersion,frameRate,
,,71.22936484599995,71.22936484599995,t,3.143181850999099,,,,,,bb98,1,vpnl,2024-02-18_14h49.12.185,shortbabyloc,2023.2.2,59.80044603156694,
,,,,,,74.40560483300214,9.185147010000946,80.41892862299937,1,blank-1.jpg,bb98,1,vpnl,2024-02-18_14h49.12.185,shortbabyloc,2023.2.2,59.80044603156694,
,,,,,,,,80.9190336770007,1,blank-2.jpg,bb98,1,vpnl,2024-02-18_14h49.12.185,shortbabyloc,2023.2.2,59.80044603156694,
,,,,,,,,81.4192519140015,1,blank-3.jpg,bb98,1,vpnl,2024-02-18_14h49.12.185,shortbabyloc,2023.2.2,59.80044603156694,
,,,,,,,,81.91909384000246,1,blank-4.jpg,bb98,1,vpnl,2024-02-18_14h49.12.185,shortbabyloc,2023.2.2,59.80044603156694,
,,,,,,,,82.41804326400234,1,blank-5.jpg,bb98,1,vpnl,2024-02-18_14h49.12.185,shortbabyloc,2023.2.2,59.80044603156694,
,,,,,,,,82.91823513100098,1,blank-6.jpg,bb98,1,vpnl,2024-02-18_14h49.12.185,shortbabyloc,2023.2.2,59.80044603156694,
,,,,,,,,83.41917026400188,1,blank-7.jpg,bb98,1,vpnl,2024-02-18_14h49.12.185,shortbabyloc,2023.2.2,59.80044603156694,
,,,,,,,,83.9190194340008,1,blank-8.jpg,bb98,1,vpnl,2024-02-18_14h49.12.185,shortbabyloc,2023.2.2,59.80044603156694,
,,,,,,,,84.41658293300134,2,blank-9.jpg,bb98,1,vpnl,2024-02-18_14h49.12.185,shortbabyloc,2023.2.2,59.80044603156694,
,,,,,,,,84.91642208399935,2,blank-10.jpg,bb98,1,vpnl,2024-02-18_14h49.12.185,shortbabyloc,2023.2.2,59.80044603156694,
,,,,,,,,85.41634360800163,2,blank-11.jpg,bb98,1,vpnl,2024-02-18_14h49.12.185,shortbabyloc,2023.2.2,59.80044603156694,
,,,,,,,,85.91636184500021,2,blank-12.jpg,bb98,1,vpnl,2024-02-18_14h49.12.185,shortbabyloc,2023.2.2,59.80044603156694,
,,,,,,,,86.41580515000169,2,blank-13.jpg,bb98,1,vpnl,2024-02-18_14h49.12.185,shortbabyloc,2023.2.2,59.80044603156694,
,,,,,,,,86.91638554900055,2,blank-14.jpg,bb98,1,vpnl,2024-02-18_14h49.12.185,shortbabyloc,2023.2.2,59.80044603156694,
,,,,,,,,87.41615797800114,2,blank-15.jpg,bb98,1,vpnl,2024-02-18_14h49.12.185,shortbabyloc,2023.2.2,59.80044603156694,
,,,,,,,,87.91638124100064,2,blank-16.jpg,bb98,1,vpnl,2024-02-18_14h49.12.185,shortbabyloc,2023.2.2,59.80044603156694,
,,,,,,,,88.41652473000067,3,scenes-1.jpg,bb98,1,vpnl,2024-02-18_14h49.12.185,shortbabyloc,2023.2.2,59.80044603156694,
,,,,,,,,88.91616516499926,3,scenes-2.jpg,bb98,1,vpnl,2024-02-18_14h49.12.185,shortbabyloc,2023.2.2,59.80044603156694,
,,,,,,,,89.41574489200138,3,scenes-3.jpg,bb98,1,vpnl,2024-02-18_14h49.12.185,shortbabyloc,2023.2.2,59.80044603156694,
,,,,,,,,89.91709024500233,3,scenes-4.jpg,bb98,1,vpnl,2024-02-18_14h49.12.185,shortbabyloc,2023.2.2,59.80044603156694,
,,,,,,,,90.41623245899973,3,scenes-5.jpg,bb98,1,vpnl,2024-02-18_14h49.12.185,shortbabyloc,2023.2.2,59.80044603156694,
,,,,,,,,90.91614691400173,3,scenes-6.jpg,bb98,1,vpnl,2024-02-18_14h49.12.185,shortbabyloc,2023.2.2,59.80044603156694,
,,,,,,,,91.41609424499984,3,scenes-7.jpg,bb98,1,vpnl,2024-02-18_14h49.12.185,shortbabyloc,2023.2.2,59.80044603156694,
,,,,,,,,91.91633853700114,3,scenes-8.jpg,bb98,1,vpnl,2024-02-18_14h49.12.185,shortbabyloc,2023.2.2,59.80044603156694,
,,,,,,,,92.41650767399915,4,faces-1.jpg,bb98,1,vpnl,2024-02-18_14h49.12.185,shortbabyloc,2023.2.2,59.80044603156694,
,,,,,,,,92.91625294700134,4,faces-2.jpg,bb98,1,vpnl,2024-02-18_14h49.12.185,shortbabyloc,2023.2.2,59.80044603156694,
,,,,,,,,93.41608228300174,4,faces-3.jpg,bb98,1,vpnl,2024-02-18_14h49.12.185,shortbabyloc,2023.2.2,59.80044603156694,
,,,,,,,,93.91634407200036,4,faces-4.jpg,bb98,1,vpnl,2024-02-18_14h49.12.185,shortbabyloc,2023.2.2,59.80044603156694,
,,,,,,,,94.41614658400067,4,faces-5.jpg,bb98,1,vpnl,2024-02-18_14h49.12.185,shortbabyloc,2023.2.2,59.80044603156694,
,,,,,,,,94.91638510800112,4,faces-6.jpg,bb98,1,vpnl,2024-02-18_14h49.12.185,shortbabyloc,2023.2.2,59.80044603156694,
,,,,,,,,95.41639716099962,4,faces-7.jpg,bb98,1,vpnl,2024-02-18_14h49.12.185,shortbabyloc,2023.2.2,59.80044603156694,
,,,,,,,,95.91647798100166,4,faces-8.jpg,bb98,1,vpnl,2024-02-18_14h49.12.185,shortbabyloc,2023.2.2,59.80044603156694,
,,,,,,,,96.41657549400043,5,cars-1.jpg,bb98,1,vpnl,2024-02-18_14h49.12.185,shortbabyloc,2023.2.2,59.80044603156694,
,,,,,,,,96.9166293269991,5,cars-2.jpg,bb98,1,vpnl,2024-02-18_14h49.12.185,shortbabyloc,2023.2.2,59.80044603156694,
,,,,,,,,97.41640189499958,5,cars-3.jpg,bb98,1,vpnl,2024-02-18_14h49.12.185,shortbabyloc,2023.2.2,59.80044603156694,
,,,,,,,,97.91616750100002,5,cars-4.jpg,bb98,1,vpnl,2024-02-18_14h49.12.185,shortbabyloc,2023.2.2,59.80044603156694,
,,,,,,,,98.41617985199991,5,cars-5.jpg,bb98,1,vpnl,2024-02-18_14h49.12.185,shortbabyloc,2023.2.2,59.80044603156694,
,,,,,,,,98.916503774999,5,cars-6.jpg,bb98,1,vpnl,2024-02-18_14h49.12.185,shortbabyloc,2023.2.2,59.80044603156694,
,,,,,,,,99.41637501700097,5,cars-7.jpg,bb98,1,vpnl,2024-02-18_14h49.12.185,shortbabyloc,2023.2.2,59.80044603156694,
,,,,,,,,99.91630673200052,5,cars-8.jpg,bb98,1,vpnl,2024-02-18_14h49.12.185,shortbabyloc,2023.2.2,59.80044603156694,
,,,,,,,,100.4159569580006,6,hands-1.jpg,bb98,1,vpnl,2024-02-18_14h49.12.185,shortbabyloc,2023.2.2,59.80044603156694,
,,,,,,,,100.91596672300147,6,hands-2.jpg,bb98,1,vpnl,2024-02-18_14h49.12.185,shortbabyloc,2023.2.2,59.80044603156694,
,,,,,,,,101.41608322899992,6,hands-3.jpg,bb98,1,vpnl,2024-02-18_14h49.12.185,shortbabyloc,2023.2.2,59.80044603156694,
,,,,,,,,101.91596569300236,6,hands-4.jpg,bb98,1,vpnl,2024-02-18_14h49.12.185,shortbabyloc,2023.2.2,59.80044603156694,
,,,,,,,,102.4162305409991,6,hands-5.jpg,bb98,1,vpnl,2024-02-18_14h49.12.185,shortbabyloc,2023.2.2,59.80044603156694,
,,,,,,,,102.91607550499975,6,hands-6.jpg,bb98,1,vpnl,2024-02-18_14h49.12.185,shortbabyloc,2023.2.2,59.80044603156694,
,,,,,,,,103.41614096299963,6,hands-7.jpg,bb98,1,vpnl,2024-02-18_14h49.12.185,shortbabyloc,2023.2.2,59.80044603156694,
,,,,,,,,103.91630225300105,6,hands-8.jpg,bb98,1,vpnl,2024-02-18_14h49.12.185,shortbabyloc,2023.2.2,59.80044603156694,
,,,,,,,,104.41619833000004,7,faces-9.jpg,bb98,1,vpnl,2024-02-18_14h49.12.185,shortbabyloc,2023.2.2,59.80044603156694,
,,,,,,,,104.91611428100077,7,faces-10.jpg,bb98,1,vpnl,2024-02-18_14h49.12.185,shortbabyloc,2023.2.2,59.80044603156694,
,,,,,,,,105.4158110419994,7,faces-11.jpg,bb98,1,vpnl,2024-02-18_14h49.12.185,shortbabyloc,2023.2.2,59.80044603156694,
,,,,,,,,105.91624955500083,7,faces-12.jpg,bb98,1,vpnl,2024-02-18_14h49.12.185,shortbabyloc,2023.2.2,59.80044603156694,
,,,,,,,,106.41652402700129,7,faces-13.jpg,bb98,1,vpnl,2024-02-18_14h49.12.185,shortbabyloc,2023.2.2,59.80044603156694,
,,,,,,,,106.91629502599972,7,faces-14.jpg,bb98,1,vpnl,2024-02-18_14h49.12.185,shortbabyloc,2023.2.2,59.80044603156694,
,,,,,,,,107.41645176800012,7,faces-15.jpg,bb98,1,vpnl,2024-02-18_14h49.12.185,shortbabyloc,2023.2.2,59.80044603156694,
,,,,,,,,107.91637860300034,7,faces-16.jpg,bb98,1,vpnl,2024-02-18_14h49.12.185,shortbabyloc,2023.2.2,59.80044603156694,
,,,,,,,,108.41617208000025,8,scenes-9.jpg,bb98,1,vpnl,2024-02-18_14h49.12.185,shortbabyloc,2023.2.2,59.80044603156694,
,,,,,,,,108.91543504700167,8,scenes-10.jpg,bb98,1,vpnl,2024-02-18_14h49.12.185,shortbabyloc,2023.2.2,59.80044603156694,
,,,,,,,,109.41533929599973,8,scenes-11.jpg,bb98,1,vpnl,2024-02-18_14h49.12.185,shortbabyloc,2023.2.2,59.80044603156694,
,,,,,,,,109.91622608300167,8,scenes-12.jpg,bb98,1,vpnl,2024-02-18_14h49.12.185,shortbabyloc,2023.2.2,59.80044603156694,
,,,,,,,,110.4158594210021,8,scenes-13.jpg,bb98,1,vpnl,2024-02-18_14h49.12.185,shortbabyloc,2023.2.2,59.80044603156694,
,,,,,,,,110.91587135000009,8,scenes-14.jpg,bb98,1,vpnl,2024-02-18_14h49.12.185,shortbabyloc,2023.2.2,59.80044603156694,
,,,,,,,,111.41590495000128,8,scenes-15.jpg,bb98,1,vpnl,2024-02-18_14h49.12.185,shortbabyloc,2023.2.2,59.80044603156694,
,,,,,,,,111.91506791000211,8,scenes-16.jpg,bb98,1,vpnl,2024-02-18_14h49.12.185,shortbabyloc,2023.2.2,59.80044603156694,
,,,,,,,,112.41588756900092,9,cars-9.jpg,bb98,1,vpnl,2024-02-18_14h49.12.185,shortbabyloc,2023.2.2,59.80044603156694,
,,,,,,,,112.9159994670008,9,cars-10.jpg,bb98,1,vpnl,2024-02-18_14h49.12.185,shortbabyloc,2023.2.2,59.80044603156694,
,,,,,,,,113.4157666530009,9,cars-11.jpg,bb98,1,vpnl,2024-02-18_14h49.12.185,shortbabyloc,2023.2.2,59.80044603156694,
,,,,,,,,113.91591635100121,9,cars-12.jpg,bb98,1,vpnl,2024-02-18_14h49.12.185,shortbabyloc,2023.2.2,59.80044603156694,
,,,,,,,,114.4158347449993,9,cars-13.jpg,bb98,1,vpnl,2024-02-18_14h49.12.185,shortbabyloc,2023.2.2,59.80044603156694,
,,,,,,,,114.91606607100039,9,cars-14.jpg,bb98,1,vpnl,2024-02-18_14h49.12.185,shortbabyloc,2023.2.2,59.80044603156694,
,,,,,,,,115.41619607300163,9,cars-15.jpg,bb98,1,vpnl,2024-02-18_14h49.12.185,shortbabyloc,2023.2.2,59.80044603156694,
,,,,,,,,115.91603526499966,9,cars-16.jpg,bb98,1,vpnl,2024-02-18_14h49.12.185,shortbabyloc,2023.2.2,59.80044603156694,
,,,,,,,,116.41601214000184,10,blank-17.jpg,bb98,1,vpnl,2024-02-18_14h49.12.185,shortbabyloc,2023.2.2,59.80044603156694,
,,,,,,,,116.91597412000192,10,blank-18.jpg,bb98,1,vpnl,2024-02-18_14h49.12.185,shortbabyloc,2023.2.2,59.80044603156694,
,,,,,,,,117.41611264300082,10,blank-19.jpg,bb98,1,vpnl,2024-02-18_14h49.12.185,shortbabyloc,2023.2.2,59.80044603156694,
,,,,,,,,117.91589293300058,10,blank-20.jpg,bb98,1,vpnl,2024-02-18_14h49.12.185,shortbabyloc,2023.2.2,59.80044603156694,
,,,,,,,,118.41623107300256,10,blank-21.jpg,bb98,1,vpnl,2024-02-18_14h49.12.185,shortbabyloc,2023.2.2,59.80044603156694,
,,,,,,,,118.9160177920021,10,blank-22.jpg,bb98,1,vpnl,2024-02-18_14h49.12.185,shortbabyloc,2023.2.2,59.80044603156694,
,,,,,,,,119.41516172499905,10,blank-23.jpg,bb98,1,vpnl,2024-02-18_14h49.12.185,shortbabyloc,2023.2.2,59.80044603156694,
,,,,,,,,119.9158947290016,10,blank-24.jpg,bb98,1,vpnl,2024-02-18_14h49.12.185,shortbabyloc,2023.2.2,59.80044603156694,
,,,,,,,,120.4172263670007,11,hands-9.jpg,bb98,1,vpnl,2024-02-18_14h49.12.185,shortbabyloc,2023.2.2,59.80044603156694,
,,,,,,,,120.9155849910021,11,hands-10.jpg,bb98,1,vpnl,2024-02-18_14h49.12.185,shortbabyloc,2023.2.2,59.80044603156694,
,,,,,,,,121.41566883300038,11,hands-11.jpg,bb98,1,vpnl,2024-02-18_14h49.12.185,shortbabyloc,2023.2.2,59.80044603156694,
,,,,,,,,121.91578017700158,11,hands-12.jpg,bb98,1,vpnl,2024-02-18_14h49.12.185,shortbabyloc,2023.2.2,59.80044603156694,
,,,,,,,,122.41524662400116,11,hands-13.jpg,bb98,1,vpnl,2024-02-18_14h49.12.185,shortbabyloc,2023.2.2,59.80044603156694,
,,,,,,,,122.9159689320004,11,hands-14.jpg,bb98,1,vpnl,2024-02-18_14h49.12.185,shortbabyloc,2023.2.2,59.80044603156694,
,,,,,,,,123.41754578200198,11,hands-15.jpg,bb98,1,vpnl,2024-02-18_14h49.12.185,shortbabyloc,2023.2.2,59.80044603156694,
,,,,,,,,123.91599302100076,11,hands-16.jpg,bb98,1,vpnl,2024-02-18_14h49.12.185,shortbabyloc,2023.2.2,59.80044603156694,
,,,,,,,,124.41612114500094,12,cars-17.jpg,bb98,1,vpnl,2024-02-18_14h49.12.185,shortbabyloc,2023.2.2,59.80044603156694,
,,,,,,,,124.91591804299969,12,cars-18.jpg,bb98,1,vpnl,2024-02-18_14h49.12.185,shortbabyloc,2023.2.2,59.80044603156694,
,,,,,,,,125.41552311100168,12,cars-19.jpg,bb98,1,vpnl,2024-02-18_14h49.12.185,shortbabyloc,2023.2.2,59.80044603156694,
,,,,,,,,125.91582447800101,12,cars-20.jpg,bb98,1,vpnl,2024-02-18_14h49.12.185,shortbabyloc,2023.2.2,59.80044603156694,
,,,,,,,,126.41732324199984,12,cars-21.jpg,bb98,1,vpnl,2024-02-18_14h49.12.185,shortbabyloc,2023.2.2,59.80044603156694,
,,,,,,,,126.91601806000108,12,cars-22.jpg,bb98,1,vpnl,2024-02-18_14h49.12.185,shortbabyloc,2023.2.2,59.80044603156694,
,,,,,,,,127.41598233200057,12,cars-23.jpg,bb98,1,vpnl,2024-02-18_14h49.12.185,shortbabyloc,2023.2.2,59.80044603156694,
,,,,,,,,127.9159939630008,12,cars-24.jpg,bb98,1,vpnl,2024-02-18_14h49.12.185,shortbabyloc,2023.2.2,59.80044603156694,
,,,,,,,,128.41537312999935,13,hands-17.jpg,bb98,1,vpnl,2024-02-18_14h49.12.185,shortbabyloc,2023.2.2,59.80044603156694,
,,,,,,,,128.9159330700022,13,hands-18.jpg,bb98,1,vpnl,2024-02-18_14h49.12.185,shortbabyloc,2023.2.2,59.80044603156694,
,,,,,,,,129.4153952400011,13,hands-19.jpg,bb98,1,vpnl,2024-02-18_14h49.12.185,shortbabyloc,2023.2.2,59.80044603156694,
,,,,,,,,129.9159450320003,13,hands-20.jpg,bb98,1,vpnl,2024-02-18_14h49.12.185,shortbabyloc,2023.2.2,59.80044603156694,
,,,,,,,,130.4154334449995,13,hands-21.jpg,bb98,1,vpnl,2024-02-18_14h49.12.185,shortbabyloc,2023.2.2,59.80044603156694,
,,,,,,,,130.91577974699976,13,hands-22.jpg,bb98,1,vpnl,2024-02-18_14h49.12.185,shortbabyloc,2023.2.2,59.80044603156694,
,,,,,,,,131.41537111700018,13,hands-23.jpg,bb98,1,vpnl,2024-02-18_14h49.12.185,shortbabyloc,2023.2.2,59.80044603156694,
,,,,,,,,131.91578783799923,13,hands-24.jpg,bb98,1,vpnl,2024-02-18_14h49.12.185,shortbabyloc,2023.2.2,59.80044603156694,
,,,,,,,,132.4150344289992,14,faces-17.jpg,bb98,1,vpnl,2024-02-18_14h49.12.185,shortbabyloc,2023.2.2,59.80044603156694,
,,,,,,,,132.9158660480025,14,faces-18.jpg,bb98,1,vpnl,2024-02-18_14h49.12.185,shortbabyloc,2023.2.2,59.80044603156694,
,,,,,,,,133.4153526299997,14,faces-19.jpg,bb98,1,vpnl,2024-02-18_14h49.12.185,shortbabyloc,2023.2.2,59.80044603156694,
,,,,,,,,133.91549730900078,14,faces-20.jpg,bb98,1,vpnl,2024-02-18_14h49.12.185,shortbabyloc,2023.2.2,59.80044603156694,
,,,,,,,,134.4152393430013,14,faces-21.jpg,bb98,1,vpnl,2024-02-18_14h49.12.185,shortbabyloc,2023.2.2,59.80044603156694,
,,,,,,,,134.91553430600106,14,faces-22.jpg,bb98,1,vpnl,2024-02-18_14h49.12.185,shortbabyloc,2023.2.2,59.80044603156694,
,,,,,,,,135.41582809700049,14,faces-23.jpg,bb98,1,vpnl,2024-02-18_14h49.12.185,shortbabyloc,2023.2.2,59.80044603156694,
,,,,,,,,135.91477888200097,14,faces-24.jpg,bb98,1,vpnl,2024-02-18_14h49.12.185,shortbabyloc,2023.2.2,59.80044603156694,
,,,,,,,,136.41487178800162,15,scenes-17.jpg,bb98,1,vpnl,2024-02-18_14h49.12.185,shortbabyloc,2023.2.2,59.80044603156694,
,,,,,,,,136.91480484299973,15,scenes-18.jpg,bb98,1,vpnl,2024-02-18_14h49.12.185,shortbabyloc,2023.2.2,59.80044603156694,
,,,,,,,,137.41486687600263,15,scenes-19.jpg,bb98,1,vpnl,2024-02-18_14h49.12.185,shortbabyloc,2023.2.2,59.80044603156694,
,,,,,,,,137.9148421030004,15,scenes-20.jpg,bb98,1,vpnl,2024-02-18_14h49.12.185,shortbabyloc,2023.2.2,59.80044603156694,
,,,,,,,,138.41480164200038,15,scenes-21.jpg,bb98,1,vpnl,2024-02-18_14h49.12.185,shortbabyloc,2023.2.2,59.80044603156694,
,,,,,,,,138.9148907939998,15,scenes-22.jpg,bb98,1,vpnl,2024-02-18_14h49.12.185,shortbabyloc,2023.2.2,59.80044603156694,
,,,,,,,,139.414893227,15,scenes-23.jpg,bb98,1,vpnl,2024-02-18_14h49.12.185,shortbabyloc,2023.2.2,59.80044603156694,
,,,,,,,,139.91482994800026,15,scenes-24.jpg,bb98,1,vpnl,2024-02-18_14h49.12.185,shortbabyloc,2023.2.2,59.80044603156694,
,,,,,,,,140.4153791839999,16,blank-25.jpg,bb98,1,vpnl,2024-02-18_14h49.12.185,shortbabyloc,2023.2.2,59.80044603156694,
,,,,,,,,140.9154297419991,16,blank-26.jpg,bb98,1,vpnl,2024-02-18_14h49.12.185,shortbabyloc,2023.2.2,59.80044603156694,
,,,,,,,,141.41509297400262,16,blank-27.jpg,bb98,1,vpnl,2024-02-18_14h49.12.185,shortbabyloc,2023.2.2,59.80044603156694,
,,,,,,,,141.9155103430021,16,blank-28.jpg,bb98,1,vpnl,2024-02-18_14h49.12.185,shortbabyloc,2023.2.2,59.80044603156694,
,,,,,,,,142.4157030330025,16,blank-29.jpg,bb98,1,vpnl,2024-02-18_14h49.12.185,shortbabyloc,2023.2.2,59.80044603156694,
,,,,,,,,142.9154521570017,16,blank-30.jpg,bb98,1,vpnl,2024-02-18_14h49.12.185,shortbabyloc,2023.2.2,59.80044603156694,
,,,,,,,,143.4151783180023,16,blank-31.jpg,bb98,1,vpnl,2024-02-18_14h49.12.185,shortbabyloc,2023.2.2,59.80044603156694,
,,,,,,,,143.9154240579992,16,blank-32.jpg,bb98,1,vpnl,2024-02-18_14h49.12.185,shortbabyloc,2023.2.2,59.80044603156694,
,,,,,,,,144.4156015840017,17,faces-25.jpg,bb98,1,vpnl,2024-02-18_14h49.12.185,shortbabyloc,2023.2.2,59.80044603156694,
,,,,,,,,144.91577829400194,17,faces-26.jpg,bb98,1,vpnl,2024-02-18_14h49.12.185,shortbabyloc,2023.2.2,59.80044603156694,
,,,,,,,,145.41536428200197,17,faces-27.jpg,bb98,1,vpnl,2024-02-18_14h49.12.185,shortbabyloc,2023.2.2,59.80044603156694,
,,,,,,,,145.9153951770022,17,faces-28.jpg,bb98,1,vpnl,2024-02-18_14h49.12.185,shortbabyloc,2023.2.2,59.80044603156694,
,,,,,,,,146.41561959600222,17,faces-29.jpg,bb98,1,vpnl,2024-02-18_14h49.12.185,shortbabyloc,2023.2.2,59.80044603156694,
,,,,,,,,146.915228545,17,faces-30.jpg,bb98,1,vpnl,2024-02-18_14h49.12.185,shortbabyloc,2023.2.2,59.80044603156694,
,,,,,,,,147.41501823699946,17,faces-31.jpg,bb98,1,vpnl,2024-02-18_14h49.12.185,shortbabyloc,2023.2.2,59.80044603156694,
,,,,,,,,147.91546949199983,17,faces-32.jpg,bb98,1,vpnl,2024-02-18_14h49.12.185,shortbabyloc,2023.2.2,59.80044603156694,
,,,,,,,,148.4155067920001,18,blank-33.jpg,bb98,1,vpnl,2024-02-18_14h49.12.185,shortbabyloc,2023.2.2,59.80044603156694,
,,,,,,,,148.9152461900012,18,blank-34.jpg,bb98,1,vpnl,2024-02-18_14h49.12.185,shortbabyloc,2023.2.2,59.80044603156694,
,,,,,,,,149.4152142310013,18,blank-35.jpg,bb98,1,vpnl,2024-02-18_14h49.12.185,shortbabyloc,2023.2.2,59.80044603156694,
,,,,,,,,149.9150097640013,18,blank-36.jpg,bb98,1,vpnl,2024-02-18_14h49.12.185,shortbabyloc,2023.2.2,59.80044603156694,
,,,,,,,,150.41498820100242,18,blank-37.jpg,bb98,1,vpnl,2024-02-18_14h49.12.185,shortbabyloc,2023.2.2,59.80044603156694,
,,,,,,,,150.915315860002,18,blank-38.jpg,bb98,1,vpnl,2024-02-18_14h49.12.185,shortbabyloc,2023.2.2,59.80044603156694,
,,,,,,,,151.41545695899913,18,blank-39.jpg,bb98,1,vpnl,2024-02-18_14h49.12.185,shortbabyloc,2023.2.2,59.80044603156694,
,,,,,,,,151.91491545600002,18,blank-40.jpg,bb98,1,vpnl,2024-02-18_14h49.12.185,shortbabyloc,2023.2.2,59.80044603156694,
,,,,,,,,152.415119436002,19,cars-25.jpg,bb98,1,vpnl,2024-02-18_14h49.12.185,shortbabyloc,2023.2.2,59.80044603156694,
,,,,,,,,152.91520853700058,19,cars-26.jpg,bb98,1,vpnl,2024-02-18_14h49.12.185,shortbabyloc,2023.2.2,59.80044603156694,
,,,,,,,,153.41517265900256,19,cars-27.jpg,bb98,1,vpnl,2024-02-18_14h49.12.185,shortbabyloc,2023.2.2,59.80044603156694,
,,,,,,,,153.9150299210014,19,cars-28.jpg,bb98,1,vpnl,2024-02-18_14h49.12.185,shortbabyloc,2023.2.2,59.80044603156694,
,,,,,,,,154.41523365399917,19,cars-29.jpg,bb98,1,vpnl,2024-02-18_14h49.12.185,shortbabyloc,2023.2.2,59.80044603156694,
,,,,,,,,154.91497842800163,19,cars-30.jpg,bb98,1,vpnl,2024-02-18_14h49.12.185,shortbabyloc,2023.2.2,59.80044603156694,
,,,,,,,,155.4152170490015,19,cars-31.jpg,bb98,1,vpnl,2024-02-18_14h49.12.185,shortbabyloc,2023.2.2,59.80044603156694,
,,,,,,,,155.9152953060002,19,cars-32.jpg,bb98,1,vpnl,2024-02-18_14h49.12.185,shortbabyloc,2023.2.2,59.80044603156694,
,,,,,,,,156.41518175300007,20,scenes-25.jpg,bb98,1,vpnl,2024-02-18_14h49.12.185,shortbabyloc,2023.2.2,59.80044603156694,
,,,,,,,,156.9153201750014,20,scenes-26.jpg,bb98,1,vpnl,2024-02-18_14h49.12.185,shortbabyloc,2023.2.2,59.80044603156694,
,,,,,,,,157.41517694800132,20,scenes-27.jpg,bb98,1,vpnl,2024-02-18_14h49.12.185,shortbabyloc,2023.2.2,59.80044603156694,
,,,,,,,,157.91517826900235,20,scenes-28.jpg,bb98,1,vpnl,2024-02-18_14h49.12.185,shortbabyloc,2023.2.2,59.80044603156694,
,,,,,,,,158.41483001600136,20,scenes-29.jpg,bb98,1,vpnl,2024-02-18_14h49.12.185,shortbabyloc,2023.2.2,59.80044603156694,
,,,,,,,,158.9148058840001,20,scenes-30.jpg,bb98,1,vpnl,2024-02-18_14h49.12.185,shortbabyloc,2023.2.2,59.80044603156694,
,,,,,,,,159.41512662800233,20,scenes-31.jpg,bb98,1,vpnl,2024-02-18_14h49.12.185,shortbabyloc,2023.2.2,59.80044603156694,
,,,,,,,,159.91521492800166,20,scenes-32.jpg,bb98,1,vpnl,2024-02-18_14h49.12.185,shortbabyloc,2023.2.2,59.80044603156694,
,,,,,,,,160.4150003169998,21,hands-25.jpg,bb98,1,vpnl,2024-02-18_14h49.12.185,shortbabyloc,2023.2.2,59.80044603156694,
,,,,,,,,160.91520843699982,21,hands-26.jpg,bb98,1,vpnl,2024-02-18_14h49.12.185,shortbabyloc,2023.2.2,59.80044603156694,
,,,,,,,,161.41523027800213,21,hands-27.jpg,bb98,1,vpnl,2024-02-18_14h49.12.185,shortbabyloc,2023.2.2,59.80044603156694,
,,,,,,,,161.91511565700057,21,hands-28.jpg,bb98,1,vpnl,2024-02-18_14h49.12.185,shortbabyloc,2023.2.2,59.80044603156694,
,,,,,,,,162.41498957899967,21,hands-29.jpg,bb98,1,vpnl,2024-02-18_14h49.12.185,shortbabyloc,2023.2.2,59.80044603156694,
,,,,,,,,162.91507827200257,21,hands-30.jpg,bb98,1,vpnl,2024-02-18_14h49.12.185,shortbabyloc,2023.2.2,59.80044603156694,
,,,,,,,,163.41513958600262,21,hands-31.jpg,bb98,1,vpnl,2024-02-18_14h49.12.185,shortbabyloc,2023.2.2,59.80044603156694,
,,,,,,,,163.91501959500238,21,hands-32.jpg,bb98,1,vpnl,2024-02-18_14h49.12.185,shortbabyloc,2023.2.2,59.80044603156694,
,,,,,,,,164.41512849300125,22,blank-41.jpg,bb98,1,vpnl,2024-02-18_14h49.12.185,shortbabyloc,2023.2.2,59.80044603156694,
,,,,,,,,164.91500064100182,22,blank-42.jpg,bb98,1,vpnl,2024-02-18_14h49.12.185,shortbabyloc,2023.2.2,59.80044603156694,
,,,,,,,,165.41505962900192,22,blank-43.jpg,bb98,1,vpnl,2024-02-18_14h49.12.185,shortbabyloc,2023.2.2,59.80044603156694,
,,,,,,,,165.91494627700013,22,blank-44.jpg,bb98,1,vpnl,2024-02-18_14h49.12.185,shortbabyloc,2023.2.2,59.80044603156694,
,,,,,,,,166.41480314400178,22,blank-45.jpg,bb98,1,vpnl,2024-02-18_14h49.12.185,shortbabyloc,2023.2.2,59.80044603156694,
,,,,,,,,166.91489782600183,22,blank-46.jpg,bb98,1,vpnl,2024-02-18_14h49.12.185,shortbabyloc,2023.2.2,59.80044603156694,
,,,,,,,,167.4151641110002,22,blank-47.jpg,bb98,1,vpnl,2024-02-18_14h49.12.185,shortbabyloc,2023.2.2,59.80044603156694,
,,,,,,,,167.91487136100113,22,blank-48.jpg,bb98,1,vpnl,2024-02-18_14h49.12.185,shortbabyloc,2023.2.2,59.80044603156694,
