thisRow.t,notes,waiting_for_trigger_text.started,trigger.started,trigger.keys,trigger.rt,countdown.started,trial.stopped,stimuli.started,condition,stim_name,participant,run,user,date,expName,psychopyVersion,frameRate,
,,24.075850634002563,24.075850634002563,t,1.5416365090022737,,,,,,bb98,1,vpnl,2024-02-18_15h12.33.042,shortbabyloc,2023.2.2,60.05615154102268,
,,,,,,25.653024002000166,7.582552018997376,31.662962156002322,1,blank-1.jpg,bb98,1,vpnl,2024-02-18_15h12.33.042,shortbabyloc,2023.2.2,60.05615154102268,
,,,,,,,,32.160260010001366,1,blank-2.jpg,bb98,1,vpnl,2024-02-18_15h12.33.042,shortbabyloc,2023.2.2,60.05615154102268,
,,,,,,,,32.66032334400006,1,blank-3.jpg,bb98,1,vpnl,2024-02-18_15h12.33.042,shortbabyloc,2023.2.2,60.05615154102268,
,,,,,,,,33.15928257400083,1,blank-4.jpg,bb98,1,vpnl,2024-02-18_15h12.33.042,shortbabyloc,2023.2.2,60.05615154102268,
,,,,,,,,33.65966433200083,1,blank-5.jpg,bb98,1,vpnl,2024-02-18_15h12.33.042,shortbabyloc,2023.2.2,60.05615154102268,
,,,,,,,,34.15958195300118,1,blank-6.jpg,bb98,1,vpnl,2024-02-18_15h12.33.042,shortbabyloc,2023.2.2,60.05615154102268,
,,,,,,,,34.65954134600179,1,blank-7.jpg,bb98,1,vpnl,2024-02-18_15h12.33.042,shortbabyloc,2023.2.2,60.05615154102268,
,,,,,,,,35.158872700001666,1,blank-8.jpg,bb98,1,vpnl,2024-02-18_15h12.33.042,shortbabyloc,2023.2.2,60.05615154102268,
,,,,,,,,35.66013324600135,2,blank-9.jpg,bb98,1,vpnl,2024-02-18_15h12.33.042,shortbabyloc,2023.2.2,60.05615154102268,
,,,,,,,,36.160078593002254,2,blank-10.jpg,bb98,1,vpnl,2024-02-18_15h12.33.042,shortbabyloc,2023.2.2,60.05615154102268,
,,,,,,,,36.658946572002606,2,blank-11.jpg,bb98,1,vpnl,2024-02-18_15h12.33.042,shortbabyloc,2023.2.2,60.05615154102268,
,,,,,,,,37.158929832003196,2,blank-12.jpg,bb98,1,vpnl,2024-02-18_15h12.33.042,shortbabyloc,2023.2.2,60.05615154102268,
,,,,,,,,37.65897470900018,2,blank-13.jpg,bb98,1,vpnl,2024-02-18_15h12.33.042,shortbabyloc,2023.2.2,60.05615154102268,
,,,,,,,,38.15895297500174,2,blank-14.jpg,bb98,1,vpnl,2024-02-18_15h12.33.042,shortbabyloc,2023.2.2,60.05615154102268,
,,,,,,,,38.658923307000805,2,blank-15.jpg,bb98,1,vpnl,2024-02-18_15h12.33.042,shortbabyloc,2023.2.2,60.05615154102268,
,,,,,,,,39.1593268530014,2,blank-16.jpg,bb98,1,vpnl,2024-02-18_15h12.33.042,shortbabyloc,2023.2.2,60.05615154102268,
,,,,,,,,39.65956932500194,3,scenes-1.jpg,bb98,1,vpnl,2024-02-18_15h12.33.042,shortbabyloc,2023.2.2,60.05615154102268,
,,,,,,,,40.159250677003,3,scenes-2.jpg,bb98,1,vpnl,2024-02-18_15h12.33.042,shortbabyloc,2023.2.2,60.05615154102268,
,,,,,,,,40.65885507200073,3,scenes-3.jpg,bb98,1,vpnl,2024-02-18_15h12.33.042,shortbabyloc,2023.2.2,60.05615154102268,
,,,,,,,,41.15891818900127,3,scenes-4.jpg,bb98,1,vpnl,2024-02-18_15h12.33.042,shortbabyloc,2023.2.2,60.05615154102268,
,,,,,,,,41.658919016001164,3,scenes-5.jpg,bb98,1,vpnl,2024-02-18_15h12.33.042,shortbabyloc,2023.2.2,60.05615154102268,
,,,,,,,,42.158963199002756,3,scenes-6.jpg,bb98,1,vpnl,2024-02-18_15h12.33.042,shortbabyloc,2023.2.2,60.05615154102268,
,,,,,,,,42.65897217900056,3,scenes-7.jpg,bb98,1,vpnl,2024-02-18_15h12.33.042,shortbabyloc,2023.2.2,60.05615154102268,
,,,,,,,,43.158825829003035,3,scenes-8.jpg,bb98,1,vpnl,2024-02-18_15h12.33.042,shortbabyloc,2023.2.2,60.05615154102268,
,,,,,,,,43.65912582000237,4,faces-1.jpg,bb98,1,vpnl,2024-02-18_15h12.33.042,shortbabyloc,2023.2.2,60.05615154102268,
,,,,,,,,44.158763442002964,4,faces-2.jpg,bb98,1,vpnl,2024-02-18_15h12.33.042,shortbabyloc,2023.2.2,60.05615154102268,
,,,,,,,,44.65879133300041,4,faces-3.jpg,bb98,1,vpnl,2024-02-18_15h12.33.042,shortbabyloc,2023.2.2,60.05615154102268,
,,,,,,,,45.15889141700245,4,faces-4.jpg,bb98,1,vpnl,2024-02-18_15h12.33.042,shortbabyloc,2023.2.2,60.05615154102268,
,,,,,,,,45.658784179002396,4,faces-5.jpg,bb98,1,vpnl,2024-02-18_15h12.33.042,shortbabyloc,2023.2.2,60.05615154102268,
,,,,,,,,46.15908333100015,4,faces-6.jpg,bb98,1,vpnl,2024-02-18_15h12.33.042,shortbabyloc,2023.2.2,60.05615154102268,
,,,,,,,,46.65868982400207,4,faces-7.jpg,bb98,1,vpnl,2024-02-18_15h12.33.042,shortbabyloc,2023.2.2,60.05615154102268,
,,,,,,,,47.15908286500053,4,faces-8.jpg,bb98,1,vpnl,2024-02-18_15h12.33.042,shortbabyloc,2023.2.2,60.05615154102268,
,,,,,,,,47.65872511100315,5,cars-1.jpg,bb98,1,vpnl,2024-02-18_15h12.33.042,shortbabyloc,2023.2.2,60.05615154102268,
,,,,,,,,48.15877249100231,5,cars-2.jpg,bb98,1,vpnl,2024-02-18_15h12.33.042,shortbabyloc,2023.2.2,60.05615154102268,
,,,,,,,,48.658787080003094,5,cars-3.jpg,bb98,1,vpnl,2024-02-18_15h12.33.042,shortbabyloc,2023.2.2,60.05615154102268,
,,,,,,,,49.158773945000576,5,cars-4.jpg,bb98,1,vpnl,2024-02-18_15h12.33.042,shortbabyloc,2023.2.2,60.05615154102268,
,,,,,,,,49.65873112400004,5,cars-5.jpg,bb98,1,vpnl,2024-02-18_15h12.33.042,shortbabyloc,2023.2.2,60.05615154102268,
,,,,,,,,50.158783362003305,5,cars-6.jpg,bb98,1,vpnl,2024-02-18_15h12.33.042,shortbabyloc,2023.2.2,60.05615154102268,
,,,,,,,,50.65889645800053,5,cars-7.jpg,bb98,1,vpnl,2024-02-18_15h12.33.042,shortbabyloc,2023.2.2,60.05615154102268,
,,,,,,,,51.15872705500078,5,cars-8.jpg,bb98,1,vpnl,2024-02-18_15h12.33.042,shortbabyloc,2023.2.2,60.05615154102268,
,,,,,,,,51.65882148400124,6,hands-1.jpg,bb98,1,vpnl,2024-02-18_15h12.33.042,shortbabyloc,2023.2.2,60.05615154102268,
,,,,,,,,52.158859936000226,6,hands-2.jpg,bb98,1,vpnl,2024-02-18_15h12.33.042,shortbabyloc,2023.2.2,60.05615154102268,
,,,,,,,,52.65872242600017,6,hands-3.jpg,bb98,1,vpnl,2024-02-18_15h12.33.042,shortbabyloc,2023.2.2,60.05615154102268,
,,,,,,,,53.1586760670034,6,hands-4.jpg,bb98,1,vpnl,2024-02-18_15h12.33.042,shortbabyloc,2023.2.2,60.05615154102268,
,,,,,,,,53.659052684000926,6,hands-5.jpg,bb98,1,vpnl,2024-02-18_15h12.33.042,shortbabyloc,2023.2.2,60.05615154102268,
,,,,,,,,54.15903024400177,6,hands-6.jpg,bb98,1,vpnl,2024-02-18_15h12.33.042,shortbabyloc,2023.2.2,60.05615154102268,
,,,,,,,,54.65867350800181,6,hands-7.jpg,bb98,1,vpnl,2024-02-18_15h12.33.042,shortbabyloc,2023.2.2,60.05615154102268,
,,,,,,,,55.15867693600012,6,hands-8.jpg,bb98,1,vpnl,2024-02-18_15h12.33.042,shortbabyloc,2023.2.2,60.05615154102268,
,,,,,,,,55.65901583900268,7,faces-9.jpg,bb98,1,vpnl,2024-02-18_15h12.33.042,shortbabyloc,2023.2.2,60.05615154102268,
,,,,,,,,56.158682396002405,7,faces-10.jpg,bb98,1,vpnl,2024-02-18_15h12.33.042,shortbabyloc,2023.2.2,60.05615154102268,
,,,,,,,,56.65873532000114,7,faces-11.jpg,bb98,1,vpnl,2024-02-18_15h12.33.042,shortbabyloc,2023.2.2,60.05615154102268,
,,,,,,,,57.15865470100107,7,faces-12.jpg,bb98,1,vpnl,2024-02-18_15h12.33.042,shortbabyloc,2023.2.2,60.05615154102268,
,,,,,,,,57.6586591760024,7,faces-13.jpg,bb98,1,vpnl,2024-02-18_15h12.33.042,shortbabyloc,2023.2.2,60.05615154102268,
,,,,,,,,58.15858648700305,7,faces-14.jpg,bb98,1,vpnl,2024-02-18_15h12.33.042,shortbabyloc,2023.2.2,60.05615154102268,
,,,,,,,,58.6585890560018,7,faces-15.jpg,bb98,1,vpnl,2024-02-18_15h12.33.042,shortbabyloc,2023.2.2,60.05615154102268,
,,,,,,,,59.158565819001524,7,faces-16.jpg,bb98,1,vpnl,2024-02-18_15h12.33.042,shortbabyloc,2023.2.2,60.05615154102268,
,,,,,,,,59.658533878002345,8,scenes-9.jpg,bb98,1,vpnl,2024-02-18_15h12.33.042,shortbabyloc,2023.2.2,60.05615154102268,
,,,,,,,,60.15857902500284,8,scenes-10.jpg,bb98,1,vpnl,2024-02-18_15h12.33.042,shortbabyloc,2023.2.2,60.05615154102268,
,,,,,,,,60.65865335300259,8,scenes-11.jpg,bb98,1,vpnl,2024-02-18_15h12.33.042,shortbabyloc,2023.2.2,60.05615154102268,
,,,,,,,,61.1585563630033,8,scenes-12.jpg,bb98,1,vpnl,2024-02-18_15h12.33.042,shortbabyloc,2023.2.2,60.05615154102268,
,,,,,,,,61.65855287100203,8,scenes-13.jpg,bb98,1,vpnl,2024-02-18_15h12.33.042,shortbabyloc,2023.2.2,60.05615154102268,
,,,,,,,,62.15851530400323,8,scenes-14.jpg,bb98,1,vpnl,2024-02-18_15h12.33.042,shortbabyloc,2023.2.2,60.05615154102268,
,,,,,,,,62.65858059600214,8,scenes-15.jpg,bb98,1,vpnl,2024-02-18_15h12.33.042,shortbabyloc,2023.2.2,60.05615154102268,
,,,,,,,,63.158413022003515,8,scenes-16.jpg,bb98,1,vpnl,2024-02-18_15h12.33.042,shortbabyloc,2023.2.2,60.05615154102268,
,,,,,,,,63.65840798000136,9,cars-9.jpg,bb98,1,vpnl,2024-02-18_15h12.33.042,shortbabyloc,2023.2.2,60.05615154102268,
,,,,,,,,64.15836930500154,9,cars-10.jpg,bb98,1,vpnl,2024-02-18_15h12.33.042,shortbabyloc,2023.2.2,60.05615154102268,
,,,,,,,,64.65837461100091,9,cars-11.jpg,bb98,1,vpnl,2024-02-18_15h12.33.042,shortbabyloc,2023.2.2,60.05615154102268,
,,,,,,,,65.15836780900281,9,cars-12.jpg,bb98,1,vpnl,2024-02-18_15h12.33.042,shortbabyloc,2023.2.2,60.05615154102268,
,,,,,,,,65.66240812100295,9,cars-13.jpg,bb98,1,vpnl,2024-02-18_15h12.33.042,shortbabyloc,2023.2.2,60.05615154102268,
,,,,,,,,66.15875445200072,9,cars-14.jpg,bb98,1,vpnl,2024-02-18_15h12.33.042,shortbabyloc,2023.2.2,60.05615154102268,
,,,,,,,,66.65832229700027,9,cars-15.jpg,bb98,1,vpnl,2024-02-18_15h12.33.042,shortbabyloc,2023.2.2,60.05615154102268,
,,,,,,,,67.15843950100316,9,cars-16.jpg,bb98,1,vpnl,2024-02-18_15h12.33.042,shortbabyloc,2023.2.2,60.05615154102268,
,,,,,,,,67.65867201200308,10,blank-17.jpg,bb98,1,vpnl,2024-02-18_15h12.33.042,shortbabyloc,2023.2.2,60.05615154102268,
,,,,,,,,68.1584338970024,10,blank-18.jpg,bb98,1,vpnl,2024-02-18_15h12.33.042,shortbabyloc,2023.2.2,60.05615154102268,
,,,,,,,,68.65838319200338,10,blank-19.jpg,bb98,1,vpnl,2024-02-18_15h12.33.042,shortbabyloc,2023.2.2,60.05615154102268,
,,,,,,,,69.15843143900202,10,blank-20.jpg,bb98,1,vpnl,2024-02-18_15h12.33.042,shortbabyloc,2023.2.2,60.05615154102268,
,,,,,,,,69.65840159500294,10,blank-21.jpg,bb98,1,vpnl,2024-02-18_15h12.33.042,shortbabyloc,2023.2.2,60.05615154102268,
,,,,,,,,70.1583992440028,10,blank-22.jpg,bb98,1,vpnl,2024-02-18_15h12.33.042,shortbabyloc,2023.2.2,60.05615154102268,
,,,,,,,,70.65844609200212,10,blank-23.jpg,bb98,1,vpnl,2024-02-18_15h12.33.042,shortbabyloc,2023.2.2,60.05615154102268,
,,,,,,,,71.15846583000166,10,blank-24.jpg,bb98,1,vpnl,2024-02-18_15h12.33.042,shortbabyloc,2023.2.2,60.05615154102268,
,,,,,,,,71.65845592500045,11,hands-9.jpg,bb98,1,vpnl,2024-02-18_15h12.33.042,shortbabyloc,2023.2.2,60.05615154102268,
,,,,,,,,72.15838813400114,11,hands-10.jpg,bb98,1,vpnl,2024-02-18_15h12.33.042,shortbabyloc,2023.2.2,60.05615154102268,
,,,,,,,,72.65840986700277,11,hands-11.jpg,bb98,1,vpnl,2024-02-18_15h12.33.042,shortbabyloc,2023.2.2,60.05615154102268,
,,,,,,,,73.15857683000286,11,hands-12.jpg,bb98,1,vpnl,2024-02-18_15h12.33.042,shortbabyloc,2023.2.2,60.05615154102268,
,,,,,,,,73.65831729100319,11,hands-13.jpg,bb98,1,vpnl,2024-02-18_15h12.33.042,shortbabyloc,2023.2.2,60.05615154102268,
,,,,,,,,74.15817993300152,11,hands-14.jpg,bb98,1,vpnl,2024-02-18_15h12.33.042,shortbabyloc,2023.2.2,60.05615154102268,
,,,,,,,,74.65829941300035,11,hands-15.jpg,bb98,1,vpnl,2024-02-18_15h12.33.042,shortbabyloc,2023.2.2,60.05615154102268,
,,,,,,,,75.15820238900051,11,hands-16.jpg,bb98,1,vpnl,2024-02-18_15h12.33.042,shortbabyloc,2023.2.2,60.05615154102268,
,,,,,,,,75.65824819300178,12,cars-17.jpg,bb98,1,vpnl,2024-02-18_15h12.33.042,shortbabyloc,2023.2.2,60.05615154102268,
,,,,,,,,76.1582047380034,12,cars-18.jpg,bb98,1,vpnl,2024-02-18_15h12.33.042,shortbabyloc,2023.2.2,60.05615154102268,
,,,,,,,,76.65824552600316,12,cars-19.jpg,bb98,1,vpnl,2024-02-18_15h12.33.042,shortbabyloc,2023.2.2,60.05615154102268,
,,,,,,,,77.15821224300089,12,cars-20.jpg,bb98,1,vpnl,2024-02-18_15h12.33.042,shortbabyloc,2023.2.2,60.05615154102268,
,,,,,,,,77.65958196500287,12,cars-21.jpg,bb98,1,vpnl,2024-02-18_15h12.33.042,shortbabyloc,2023.2.2,60.05615154102268,
,,,,,,,,78.15941130800275,12,cars-22.jpg,bb98,1,vpnl,2024-02-18_15h12.33.042,shortbabyloc,2023.2.2,60.05615154102268,
,,,,,,,,78.65807248200144,12,cars-23.jpg,bb98,1,vpnl,2024-02-18_15h12.33.042,shortbabyloc,2023.2.2,60.05615154102268,
,,,,,,,,79.15799596600118,12,cars-24.jpg,bb98,1,vpnl,2024-02-18_15h12.33.042,shortbabyloc,2023.2.2,60.05615154102268,
,,,,,,,,79.6580860460017,13,hands-17.jpg,bb98,1,vpnl,2024-02-18_15h12.33.042,shortbabyloc,2023.2.2,60.05615154102268,
,,,,,,,,80.15962882400345,13,hands-18.jpg,bb98,1,vpnl,2024-02-18_15h12.33.042,shortbabyloc,2023.2.2,60.05615154102268,
,,,,,,,,80.65812388500126,13,hands-19.jpg,bb98,1,vpnl,2024-02-18_15h12.33.042,shortbabyloc,2023.2.2,60.05615154102268,
,,,,,,,,81.15842096100096,13,hands-20.jpg,bb98,1,vpnl,2024-02-18_15h12.33.042,shortbabyloc,2023.2.2,60.05615154102268,
,,,,,,,,81.65812752500278,13,hands-21.jpg,bb98,1,vpnl,2024-02-18_15h12.33.042,shortbabyloc,2023.2.2,60.05615154102268,
,,,,,,,,82.15814655200302,13,hands-22.jpg,bb98,1,vpnl,2024-02-18_15h12.33.042,shortbabyloc,2023.2.2,60.05615154102268,
,,,,,,,,82.65808642000047,13,hands-23.jpg,bb98,1,vpnl,2024-02-18_15h12.33.042,shortbabyloc,2023.2.2,60.05615154102268,
,,,,,,,,83.15799690100175,13,hands-24.jpg,bb98,1,vpnl,2024-02-18_15h12.33.042,shortbabyloc,2023.2.2,60.05615154102268,
,,,,,,,,83.65797436600042,14,faces-17.jpg,bb98,1,vpnl,2024-02-18_15h12.33.042,shortbabyloc,2023.2.2,60.05615154102268,
,,,,,,,,84.15864485200291,14,faces-18.jpg,bb98,1,vpnl,2024-02-18_15h12.33.042,shortbabyloc,2023.2.2,60.05615154102268,
,,,,,,,,84.65935605699997,14,faces-19.jpg,bb98,1,vpnl,2024-02-18_15h12.33.042,shortbabyloc,2023.2.2,60.05615154102268,
,,,,,,,,85.15835425000114,14,faces-20.jpg,bb98,1,vpnl,2024-02-18_15h12.33.042,shortbabyloc,2023.2.2,60.05615154102268,
,,,,,,,,85.65804089300218,14,faces-21.jpg,bb98,1,vpnl,2024-02-18_15h12.33.042,shortbabyloc,2023.2.2,60.05615154102268,
,,,,,,,,86.1580187110012,14,faces-22.jpg,bb98,1,vpnl,2024-02-18_15h12.33.042,shortbabyloc,2023.2.2,60.05615154102268,
,,,,,,,,86.65797332800139,14,faces-23.jpg,bb98,1,vpnl,2024-02-18_15h12.33.042,shortbabyloc,2023.2.2,60.05615154102268,
,,,,,,,,87.15795373900255,14,faces-24.jpg,bb98,1,vpnl,2024-02-18_15h12.33.042,shortbabyloc,2023.2.2,60.05615154102268,
,,,,,,,,87.65793527200003,15,scenes-17.jpg,bb98,1,vpnl,2024-02-18_15h12.33.042,shortbabyloc,2023.2.2,60.05615154102268,
,,,,,,,,88.15803678400334,15,scenes-18.jpg,bb98,1,vpnl,2024-02-18_15h12.33.042,shortbabyloc,2023.2.2,60.05615154102268,
,,,,,,,,88.65807252900049,15,scenes-19.jpg,bb98,1,vpnl,2024-02-18_15h12.33.042,shortbabyloc,2023.2.2,60.05615154102268,
,,,,,,,,89.15805088600246,15,scenes-20.jpg,bb98,1,vpnl,2024-02-18_15h12.33.042,shortbabyloc,2023.2.2,60.05615154102268,
,,,,,,,,89.65812189600183,15,scenes-21.jpg,bb98,1,vpnl,2024-02-18_15h12.33.042,shortbabyloc,2023.2.2,60.05615154102268,
,,,,,,,,90.15802225800144,15,scenes-22.jpg,bb98,1,vpnl,2024-02-18_15h12.33.042,shortbabyloc,2023.2.2,60.05615154102268,
,,,,,,,,90.65801005700268,15,scenes-23.jpg,bb98,1,vpnl,2024-02-18_15h12.33.042,shortbabyloc,2023.2.2,60.05615154102268,
,,,,,,,,91.15810451900325,15,scenes-24.jpg,bb98,1,vpnl,2024-02-18_15h12.33.042,shortbabyloc,2023.2.2,60.05615154102268,
,,,,,,,,91.65798115300277,16,blank-25.jpg,bb98,1,vpnl,2024-02-18_15h12.33.042,shortbabyloc,2023.2.2,60.05615154102268,
,,,,,,,,92.15796754300027,16,blank-26.jpg,bb98,1,vpnl,2024-02-18_15h12.33.042,shortbabyloc,2023.2.2,60.05615154102268,
,,,,,,,,92.6580586850032,16,blank-27.jpg,bb98,1,vpnl,2024-02-18_15h12.33.042,shortbabyloc,2023.2.2,60.05615154102268,
,,,,,,,,93.15782454600048,16,blank-28.jpg,bb98,1,vpnl,2024-02-18_15h12.33.042,shortbabyloc,2023.2.2,60.05615154102268,
,,,,,,,,93.65784415800226,16,blank-29.jpg,bb98,1,vpnl,2024-02-18_15h12.33.042,shortbabyloc,2023.2.2,60.05615154102268,
,,,,,,,,94.1578557790017,16,blank-30.jpg,bb98,1,vpnl,2024-02-18_15h12.33.042,shortbabyloc,2023.2.2,60.05615154102268,
,,,,,,,,94.6581159060006,16,blank-31.jpg,bb98,1,vpnl,2024-02-18_15h12.33.042,shortbabyloc,2023.2.2,60.05615154102268,
,,,,,,,,95.15788710700144,16,blank-32.jpg,bb98,1,vpnl,2024-02-18_15h12.33.042,shortbabyloc,2023.2.2,60.05615154102268,
,,,,,,,,95.65792919400337,17,faces-25.jpg,bb98,1,vpnl,2024-02-18_15h12.33.042,shortbabyloc,2023.2.2,60.05615154102268,
,,,,,,,,96.15789900100208,17,faces-26.jpg,bb98,1,vpnl,2024-02-18_15h12.33.042,shortbabyloc,2023.2.2,60.05615154102268,
,,,,,,,,96.65779866900266,17,faces-27.jpg,bb98,1,vpnl,2024-02-18_15h12.33.042,shortbabyloc,2023.2.2,60.05615154102268,
,,,,,,,,97.15950314100337,17,faces-28.jpg,bb98,1,vpnl,2024-02-18_15h12.33.042,shortbabyloc,2023.2.2,60.05615154102268,
,,,,,,,,97.65785294900343,17,faces-29.jpg,bb98,1,vpnl,2024-02-18_15h12.33.042,shortbabyloc,2023.2.2,60.05615154102268,
,,,,,,,,98.15780250400348,17,faces-30.jpg,bb98,1,vpnl,2024-02-18_15h12.33.042,shortbabyloc,2023.2.2,60.05615154102268,
,,,,,,,,98.65768816100172,17,faces-31.jpg,bb98,1,vpnl,2024-02-18_15h12.33.042,shortbabyloc,2023.2.2,60.05615154102268,
,,,,,,,,99.15773853100109,17,faces-32.jpg,bb98,1,vpnl,2024-02-18_15h12.33.042,shortbabyloc,2023.2.2,60.05615154102268,
,,,,,,,,99.6589912030031,18,blank-33.jpg,bb98,1,vpnl,2024-02-18_15h12.33.042,shortbabyloc,2023.2.2,60.05615154102268,
,,,,,,,,100.1577017760028,18,blank-34.jpg,bb98,1,vpnl,2024-02-18_15h12.33.042,shortbabyloc,2023.2.2,60.05615154102268,
,,,,,,,,100.65844402100265,18,blank-35.jpg,bb98,1,vpnl,2024-02-18_15h12.33.042,shortbabyloc,2023.2.2,60.05615154102268,
,,,,,,,,101.15769320800246,18,blank-36.jpg,bb98,1,vpnl,2024-02-18_15h12.33.042,shortbabyloc,2023.2.2,60.05615154102268,
,,,,,,,,101.65785795200281,18,blank-37.jpg,bb98,1,vpnl,2024-02-18_15h12.33.042,shortbabyloc,2023.2.2,60.05615154102268,
,,,,,,,,102.15880000500329,18,blank-38.jpg,bb98,1,vpnl,2024-02-18_15h12.33.042,shortbabyloc,2023.2.2,60.05615154102268,
,,,,,,,,102.6583132170017,18,blank-39.jpg,bb98,1,vpnl,2024-02-18_15h12.33.042,shortbabyloc,2023.2.2,60.05615154102268,
,,,,,,,,103.15848094600005,18,blank-40.jpg,bb98,1,vpnl,2024-02-18_15h12.33.042,shortbabyloc,2023.2.2,60.05615154102268,
,,,,,,,,103.65817585000332,19,cars-25.jpg,bb98,1,vpnl,2024-02-18_15h12.33.042,shortbabyloc,2023.2.2,60.05615154102268,
,,,,,,,,104.15773212300337,19,cars-26.jpg,bb98,1,vpnl,2024-02-18_15h12.33.042,shortbabyloc,2023.2.2,60.05615154102268,
,,,,,,,,104.66068328800247,19,cars-27.jpg,bb98,1,vpnl,2024-02-18_15h12.33.042,shortbabyloc,2023.2.2,60.05615154102268,
,,,,,,,,105.15876138100066,19,cars-28.jpg,bb98,1,vpnl,2024-02-18_15h12.33.042,shortbabyloc,2023.2.2,60.05615154102268,
,,,,,,,,105.65775043600297,19,cars-29.jpg,bb98,1,vpnl,2024-02-18_15h12.33.042,shortbabyloc,2023.2.2,60.05615154102268,
,,,,,,,,106.15763754300133,19,cars-30.jpg,bb98,1,vpnl,2024-02-18_15h12.33.042,shortbabyloc,2023.2.2,60.05615154102268,
,,,,,,,,106.65769810200072,19,cars-31.jpg,bb98,1,vpnl,2024-02-18_15h12.33.042,shortbabyloc,2023.2.2,60.05615154102268,
,,,,,,,,107.15759565300323,19,cars-32.jpg,bb98,1,vpnl,2024-02-18_15h12.33.042,shortbabyloc,2023.2.2,60.05615154102268,
,,,,,,,,107.6575777270009,20,scenes-25.jpg,bb98,1,vpnl,2024-02-18_15h12.33.042,shortbabyloc,2023.2.2,60.05615154102268,
,,,,,,,,108.15751658200315,20,scenes-26.jpg,bb98,1,vpnl,2024-02-18_15h12.33.042,shortbabyloc,2023.2.2,60.05615154102268,
,,,,,,,,108.65747735200057,20,scenes-27.jpg,bb98,1,vpnl,2024-02-18_15h12.33.042,shortbabyloc,2023.2.2,60.05615154102268,
,,,,,,,,109.15743535000001,20,scenes-28.jpg,bb98,1,vpnl,2024-02-18_15h12.33.042,shortbabyloc,2023.2.2,60.05615154102268,
,,,,,,,,109.6574648570022,20,scenes-29.jpg,bb98,1,vpnl,2024-02-18_15h12.33.042,shortbabyloc,2023.2.2,60.05615154102268,
,,,,,,,,110.15745016800065,20,scenes-30.jpg,bb98,1,vpnl,2024-02-18_15h12.33.042,shortbabyloc,2023.2.2,60.05615154102268,
,,,,,,,,110.65804927200224,20,scenes-31.jpg,bb98,1,vpnl,2024-02-18_15h12.33.042,shortbabyloc,2023.2.2,60.05615154102268,
,,,,,,,,111.1574996590025,20,scenes-32.jpg,bb98,1,vpnl,2024-02-18_15h12.33.042,shortbabyloc,2023.2.2,60.05615154102268,
,,,,,,,,111.65745529700143,21,hands-25.jpg,bb98,1,vpnl,2024-02-18_15h12.33.042,shortbabyloc,2023.2.2,60.05615154102268,
,,,,,,,,112.15749956700165,21,hands-26.jpg,bb98,1,vpnl,2024-02-18_15h12.33.042,shortbabyloc,2023.2.2,60.05615154102268,
,,,,,,,,112.65745898700334,21,hands-27.jpg,bb98,1,vpnl,2024-02-18_15h12.33.042,shortbabyloc,2023.2.2,60.05615154102268,
,,,,,,,,113.15736208500311,21,hands-28.jpg,bb98,1,vpnl,2024-02-18_15h12.33.042,shortbabyloc,2023.2.2,60.05615154102268,
,,,,,,,,113.6573657470035,21,hands-29.jpg,bb98,1,vpnl,2024-02-18_15h12.33.042,shortbabyloc,2023.2.2,60.05615154102268,
,,,,,,,,114.15803172900269,21,hands-30.jpg,bb98,1,vpnl,2024-02-18_15h12.33.042,shortbabyloc,2023.2.2,60.05615154102268,
,,,,,,,,114.65741005400196,21,hands-31.jpg,bb98,1,vpnl,2024-02-18_15h12.33.042,shortbabyloc,2023.2.2,60.05615154102268,
,,,,,,,,115.15743246600323,21,hands-32.jpg,bb98,1,vpnl,2024-02-18_15h12.33.042,shortbabyloc,2023.2.2,60.05615154102268,
,,,,,,,,115.6578826110017,22,blank-41.jpg,bb98,1,vpnl,2024-02-18_15h12.33.042,shortbabyloc,2023.2.2,60.05615154102268,
,,,,,,,,116.16293920600219,22,blank-42.jpg,bb98,1,vpnl,2024-02-18_15h12.33.042,shortbabyloc,2023.2.2,60.05615154102268,
,,,,,,,,116.65793256000325,22,blank-43.jpg,bb98,1,vpnl,2024-02-18_15h12.33.042,shortbabyloc,2023.2.2,60.05615154102268,
,,,,,,,,117.15739026000301,22,blank-44.jpg,bb98,1,vpnl,2024-02-18_15h12.33.042,shortbabyloc,2023.2.2,60.05615154102268,
,,,,,,,,117.65874427500239,22,blank-45.jpg,bb98,1,vpnl,2024-02-18_15h12.33.042,shortbabyloc,2023.2.2,60.05615154102268,
,,,,,,,,118.15799573500044,22,blank-46.jpg,bb98,1,vpnl,2024-02-18_15h12.33.042,shortbabyloc,2023.2.2,60.05615154102268,
,,,,,,,,118.65795410000283,22,blank-47.jpg,bb98,1,vpnl,2024-02-18_15h12.33.042,shortbabyloc,2023.2.2,60.05615154102268,
,,,,,,,,119.15792469100052,22,blank-48.jpg,bb98,1,vpnl,2024-02-18_15h12.33.042,shortbabyloc,2023.2.2,60.05615154102268,
