thisRow.t,notes,waiting_for_trigger_text.started,trigger.started,trigger.keys,trigger.rt,countdown.started,trial.stopped,stimuli.started,condition,stim_name,stimuli.stopped,participant,run,user,date,expName,psychopyVersion,frameRate,
,,46.926603873000204,46.926603873000204,t,5.689585040001475,,,,,,,BR,6,vpnl,2024-02-10_20h54.46.447,alternatingbabyloc,2023.2.2,60.00728932571065,
,,,,,,52.65082002499912,11.721823474001212,58.65280037199955,1,blank-1.jpg,,BR,6,vpnl,2024-02-10_20h54.46.447,alternatingbabyloc,2023.2.2,60.00728932571065,
,,,,,,,,59.15321457800019,1,blank-2.jpg,,BR,6,vpnl,2024-02-10_20h54.46.447,alternatingbabyloc,2023.2.2,60.00728932571065,
,,,,,,,,59.65276252299918,1,blank-3.jpg,,BR,6,vpnl,2024-02-10_20h54.46.447,alternatingbabyloc,2023.2.2,60.00728932571065,
,,,,,,,,60.15279667499999,1,blank-4.jpg,,BR,6,vpnl,2024-02-10_20h54.46.447,alternatingbabyloc,2023.2.2,60.00728932571065,
,,,,,,,,60.65276963299948,1,blank-5.jpg,,BR,6,vpnl,2024-02-10_20h54.46.447,alternatingbabyloc,2023.2.2,60.00728932571065,
,,,,,,,,61.15314075199967,1,blank-6.jpg,,BR,6,vpnl,2024-02-10_20h54.46.447,alternatingbabyloc,2023.2.2,60.00728932571065,
,,,,,,,,61.652797253000244,1,blank-7.jpg,,BR,6,vpnl,2024-02-10_20h54.46.447,alternatingbabyloc,2023.2.2,60.00728932571065,
,,,,,,,,62.152732998998545,1,blank-8.jpg,,BR,6,vpnl,2024-02-10_20h54.46.447,alternatingbabyloc,2023.2.2,60.00728932571065,
,,,,,,,,62.6527850349994,2,cars-1.jpg,,BR,6,vpnl,2024-02-10_20h54.46.447,alternatingbabyloc,2023.2.2,60.00728932571065,
,,,,,,,,63.16588853800022,2,cars-2.jpg,,BR,6,vpnl,2024-02-10_20h54.46.447,alternatingbabyloc,2023.2.2,60.00728932571065,
,,,,,,,,63.64896699899873,2,cars-3.jpg,,BR,6,vpnl,2024-02-10_20h54.46.447,alternatingbabyloc,2023.2.2,60.00728932571065,
,,,,,,,,64.14906461699866,2,cars-4.jpg,64.6489399789989,BR,6,vpnl,2024-02-10_20h54.46.447,alternatingbabyloc,2023.2.2,60.00728932571065,
,,,,,,,,64.6489399789989,2,cars-5.jpg,65.1488744219987,BR,6,vpnl,2024-02-10_20h54.46.447,alternatingbabyloc,2023.2.2,60.00728932571065,
,,,,,,,,65.1488744219987,2,cars-6.jpg,65.64880378099951,BR,6,vpnl,2024-02-10_20h54.46.447,alternatingbabyloc,2023.2.2,60.00728932571065,
,,,,,,,,65.64880378099951,2,cars-7.jpg,66.14885508799853,BR,6,vpnl,2024-02-10_20h54.46.447,alternatingbabyloc,2023.2.2,60.00728932571065,
,,,,,,,,66.14885508799853,2,cars-8.jpg,66.64895295299903,BR,6,vpnl,2024-02-10_20h54.46.447,alternatingbabyloc,2023.2.2,60.00728932571065,
,,,,,,,,66.64895295299903,3,blank-9.jpg,67.14886078400014,BR,6,vpnl,2024-02-10_20h54.46.447,alternatingbabyloc,2023.2.2,60.00728932571065,
,,,,,,,,67.14886078400014,3,blank-10.jpg,67.64888825100024,BR,6,vpnl,2024-02-10_20h54.46.447,alternatingbabyloc,2023.2.2,60.00728932571065,
,,,,,,,,67.64888825100024,3,blank-11.jpg,68.14901995999935,BR,6,vpnl,2024-02-10_20h54.46.447,alternatingbabyloc,2023.2.2,60.00728932571065,
,,,,,,,,68.14901995999935,3,blank-12.jpg,,BR,6,vpnl,2024-02-10_20h54.46.447,alternatingbabyloc,2023.2.2,60.00728932571065,
,,,,,,,,68.64859964199968,3,blank-13.jpg,69.14902286100005,BR,6,vpnl,2024-02-10_20h54.46.447,alternatingbabyloc,2023.2.2,60.00728932571065,
,,,,,,,,69.14902286100005,3,blank-14.jpg,,BR,6,vpnl,2024-02-10_20h54.46.447,alternatingbabyloc,2023.2.2,60.00728932571065,
,,,,,,,,69.64887773199916,3,blank-15.jpg,,BR,6,vpnl,2024-02-10_20h54.46.447,alternatingbabyloc,2023.2.2,60.00728932571065,
,,,,,,,,70.1489524769986,3,blank-16.jpg,70.648566029,BR,6,vpnl,2024-02-10_20h54.46.447,alternatingbabyloc,2023.2.2,60.00728932571065,
,,,,,,,,70.648566029,4,faces-1.jpg,,BR,6,vpnl,2024-02-10_20h54.46.447,alternatingbabyloc,2023.2.2,60.00728932571065,
,,,,,,,,71.14905253899997,4,faces-2.jpg,,BR,6,vpnl,2024-02-10_20h54.46.447,alternatingbabyloc,2023.2.2,60.00728932571065,
,,,,,,,,71.64876977599852,4,faces-3.jpg,72.148800732999,BR,6,vpnl,2024-02-10_20h54.46.447,alternatingbabyloc,2023.2.2,60.00728932571065,
,,,,,,,,72.148800732999,4,faces-4.jpg,72.64886460900016,BR,6,vpnl,2024-02-10_20h54.46.447,alternatingbabyloc,2023.2.2,60.00728932571065,
,,,,,,,,72.64886460900016,4,faces-5.jpg,73.14879987599852,BR,6,vpnl,2024-02-10_20h54.46.447,alternatingbabyloc,2023.2.2,60.00728932571065,
,,,,,,,,73.14879987599852,4,faces-6.jpg,73.64897134999956,BR,6,vpnl,2024-02-10_20h54.46.447,alternatingbabyloc,2023.2.2,60.00728932571065,
,,,,,,,,73.64897134999956,4,faces-7.jpg,74.14871368099921,BR,6,vpnl,2024-02-10_20h54.46.447,alternatingbabyloc,2023.2.2,60.00728932571065,
,,,,,,,,74.14871368099921,4,faces-8.jpg,74.64879247399949,BR,6,vpnl,2024-02-10_20h54.46.447,alternatingbabyloc,2023.2.2,60.00728932571065,
,,,,,,,,74.64879247399949,5,scenes-1.jpg,75.14870583899938,BR,6,vpnl,2024-02-10_20h54.46.447,alternatingbabyloc,2023.2.2,60.00728932571065,
,,,,,,,,75.14870583899938,5,scenes-2.jpg,,BR,6,vpnl,2024-02-10_20h54.46.447,alternatingbabyloc,2023.2.2,60.00728932571065,
,,,,,,,,75.64878857700023,5,scenes-3.jpg,76.14878888899875,BR,6,vpnl,2024-02-10_20h54.46.447,alternatingbabyloc,2023.2.2,60.00728932571065,
,,,,,,,,76.14878888899875,5,scenes-4.jpg,76.64849547199992,BR,6,vpnl,2024-02-10_20h54.46.447,alternatingbabyloc,2023.2.2,60.00728932571065,
,,,,,,,,76.64849547199992,5,scenes-5.jpg,77.14882669199869,BR,6,vpnl,2024-02-10_20h54.46.447,alternatingbabyloc,2023.2.2,60.00728932571065,
,,,,,,,,77.14882669199869,5,scenes-6.jpg,77.64894135800023,BR,6,vpnl,2024-02-10_20h54.46.447,alternatingbabyloc,2023.2.2,60.00728932571065,
,,,,,,,,77.64894135800023,5,scenes-7.jpg,78.14859388900004,BR,6,vpnl,2024-02-10_20h54.46.447,alternatingbabyloc,2023.2.2,60.00728932571065,
,,,,,,,,78.14859388900004,5,scenes-8.jpg,78.64870787899963,BR,6,vpnl,2024-02-10_20h54.46.447,alternatingbabyloc,2023.2.2,60.00728932571065,
,,,,,,,,78.64870787899963,6,hands-1.jpg,79.14865704499971,BR,6,vpnl,2024-02-10_20h54.46.447,alternatingbabyloc,2023.2.2,60.00728932571065,
,,,,,,,,79.14865704499971,6,hands-2.jpg,79.64864424199914,BR,6,vpnl,2024-02-10_20h54.46.447,alternatingbabyloc,2023.2.2,60.00728932571065,
,,,,,,,,79.64864424199914,6,hands-3.jpg,80.14854556799946,BR,6,vpnl,2024-02-10_20h54.46.447,alternatingbabyloc,2023.2.2,60.00728932571065,
,,,,,,,,80.14854556799946,6,hands-4.jpg,80.64879141799975,BR,6,vpnl,2024-02-10_20h54.46.447,alternatingbabyloc,2023.2.2,60.00728932571065,
,,,,,,,,80.64879141799975,6,hands-5.jpg,81.14855943899965,BR,6,vpnl,2024-02-10_20h54.46.447,alternatingbabyloc,2023.2.2,60.00728932571065,
,,,,,,,,81.14855943899965,6,hands-6.jpg,81.64859904999867,BR,6,vpnl,2024-02-10_20h54.46.447,alternatingbabyloc,2023.2.2,60.00728932571065,
,,,,,,,,81.64859904999867,6,hands-7.jpg,82.1486904379999,BR,6,vpnl,2024-02-10_20h54.46.447,alternatingbabyloc,2023.2.2,60.00728932571065,
,,,,,,,,82.1486904379999,6,hands-8.jpg,82.6483935870001,BR,6,vpnl,2024-02-10_20h54.46.447,alternatingbabyloc,2023.2.2,60.00728932571065,
,,,,,,,,82.6483935870001,7,scenes-9.jpg,83.14874860399868,BR,6,vpnl,2024-02-10_20h54.46.447,alternatingbabyloc,2023.2.2,60.00728932571065,
,,,,,,,,83.14874860399868,7,scenes-10.jpg,83.6489233100001,BR,6,vpnl,2024-02-10_20h54.46.447,alternatingbabyloc,2023.2.2,60.00728932571065,
,,,,,,,,83.6489233100001,7,scenes-11.jpg,84.1488011349993,BR,6,vpnl,2024-02-10_20h54.46.447,alternatingbabyloc,2023.2.2,60.00728932571065,
,,,,,,,,84.1488011349993,7,scenes-12.jpg,84.64854084599938,BR,6,vpnl,2024-02-10_20h54.46.447,alternatingbabyloc,2023.2.2,60.00728932571065,
,,,,,,,,84.64854084599938,7,scenes-13.jpg,85.14860117699936,BR,6,vpnl,2024-02-10_20h54.46.447,alternatingbabyloc,2023.2.2,60.00728932571065,
,,,,,,,,85.14860117699936,7,scenes-14.jpg,85.64847543199903,BR,6,vpnl,2024-02-10_20h54.46.447,alternatingbabyloc,2023.2.2,60.00728932571065,
,,,,,,,,85.64847543199903,7,scenes-15.jpg,86.14845512899956,BR,6,vpnl,2024-02-10_20h54.46.447,alternatingbabyloc,2023.2.2,60.00728932571065,
,,,,,,,,86.14845512899956,7,scenes-16.jpg,86.64855086999887,BR,6,vpnl,2024-02-10_20h54.46.447,alternatingbabyloc,2023.2.2,60.00728932571065,
,,,,,,,,86.64855086999887,8,faces-9.jpg,87.14850074199967,BR,6,vpnl,2024-02-10_20h54.46.447,alternatingbabyloc,2023.2.2,60.00728932571065,
,,,,,,,,87.14850074199967,8,faces-10.jpg,87.64869365199957,BR,6,vpnl,2024-02-10_20h54.46.447,alternatingbabyloc,2023.2.2,60.00728932571065,
,,,,,,,,87.64869365199957,8,faces-11.jpg,88.14866990599876,BR,6,vpnl,2024-02-10_20h54.46.447,alternatingbabyloc,2023.2.2,60.00728932571065,
,,,,,,,,88.14866990599876,8,faces-12.jpg,88.6487285080002,BR,6,vpnl,2024-02-10_20h54.46.447,alternatingbabyloc,2023.2.2,60.00728932571065,
,,,,,,,,88.6487285080002,8,faces-13.jpg,89.14818535499944,BR,6,vpnl,2024-02-10_20h54.46.447,alternatingbabyloc,2023.2.2,60.00728932571065,
,,,,,,,,89.14818535499944,8,faces-14.jpg,89.64840601499964,BR,6,vpnl,2024-02-10_20h54.46.447,alternatingbabyloc,2023.2.2,60.00728932571065,
,,,,,,,,89.64840601499964,8,faces-15.jpg,90.15264034999927,BR,6,vpnl,2024-02-10_20h54.46.447,alternatingbabyloc,2023.2.2,60.00728932571065,
,,,,,,,,90.15264034999927,8,faces-16.jpg,,BR,6,vpnl,2024-02-10_20h54.46.447,alternatingbabyloc,2023.2.2,60.00728932571065,
,,,,,,,,90.66506279599889,9,blank-17.jpg,,BR,6,vpnl,2024-02-10_20h54.46.447,alternatingbabyloc,2023.2.2,60.00728932571065,
,,,,,,,,91.16513206499985,9,blank-18.jpg,,BR,6,vpnl,2024-02-10_20h54.46.447,alternatingbabyloc,2023.2.2,60.00728932571065,
,,,,,,,,91.66507208499934,9,blank-19.jpg,,BR,6,vpnl,2024-02-10_20h54.46.447,alternatingbabyloc,2023.2.2,60.00728932571065,
,,,,,,,,92.16518539599929,9,blank-20.jpg,,BR,6,vpnl,2024-02-10_20h54.46.447,alternatingbabyloc,2023.2.2,60.00728932571065,
,,,,,,,,92.66514955999992,9,blank-21.jpg,,BR,6,vpnl,2024-02-10_20h54.46.447,alternatingbabyloc,2023.2.2,60.00728932571065,
,,,,,,,,93.16521564599861,9,blank-22.jpg,,BR,6,vpnl,2024-02-10_20h54.46.447,alternatingbabyloc,2023.2.2,60.00728932571065,
,,,,,,,,93.66501959099878,9,blank-23.jpg,,BR,6,vpnl,2024-02-10_20h54.46.447,alternatingbabyloc,2023.2.2,60.00728932571065,
,,,,,,,,94.16502979899997,9,blank-24.jpg,,BR,6,vpnl,2024-02-10_20h54.46.447,alternatingbabyloc,2023.2.2,60.00728932571065,
,,,,,,,,94.6651581189999,10,hands-9.jpg,,BR,6,vpnl,2024-02-10_20h54.46.447,alternatingbabyloc,2023.2.2,60.00728932571065,
,,,,,,,,95.16501995399994,10,hands-10.jpg,,BR,6,vpnl,2024-02-10_20h54.46.447,alternatingbabyloc,2023.2.2,60.00728932571065,
,,,,,,,,95.6649638859999,10,hands-11.jpg,,BR,6,vpnl,2024-02-10_20h54.46.447,alternatingbabyloc,2023.2.2,60.00728932571065,
,,,,,,,,96.16500405399893,10,hands-12.jpg,,BR,6,vpnl,2024-02-10_20h54.46.447,alternatingbabyloc,2023.2.2,60.00728932571065,
,,,,,,,,96.66509795999991,10,hands-13.jpg,,BR,6,vpnl,2024-02-10_20h54.46.447,alternatingbabyloc,2023.2.2,60.00728932571065,
,,,,,,,,97.16512676599996,10,hands-14.jpg,,BR,6,vpnl,2024-02-10_20h54.46.447,alternatingbabyloc,2023.2.2,60.00728932571065,
,,,,,,,,97.66515673399954,10,hands-15.jpg,,BR,6,vpnl,2024-02-10_20h54.46.447,alternatingbabyloc,2023.2.2,60.00728932571065,
,,,,,,,,98.14807940699939,10,hands-16.jpg,98.64836723999906,BR,6,vpnl,2024-02-10_20h54.46.447,alternatingbabyloc,2023.2.2,60.00728932571065,
,,,,,,,,98.64836723999906,11,cars-9.jpg,99.1484254829993,BR,6,vpnl,2024-02-10_20h54.46.447,alternatingbabyloc,2023.2.2,60.00728932571065,
,,,,,,,,99.1484254829993,11,cars-10.jpg,99.64820522199989,BR,6,vpnl,2024-02-10_20h54.46.447,alternatingbabyloc,2023.2.2,60.00728932571065,
,,,,,,,,99.64820522199989,11,cars-11.jpg,100.14820139599942,BR,6,vpnl,2024-02-10_20h54.46.447,alternatingbabyloc,2023.2.2,60.00728932571065,
,,,,,,,,100.14820139599942,11,cars-12.jpg,100.6479431939988,BR,6,vpnl,2024-02-10_20h54.46.447,alternatingbabyloc,2023.2.2,60.00728932571065,
,,,,,,,,100.6479431939988,11,cars-13.jpg,101.1483609349998,BR,6,vpnl,2024-02-10_20h54.46.447,alternatingbabyloc,2023.2.2,60.00728932571065,
,,,,,,,,101.1483609349998,11,cars-14.jpg,101.64796871899853,BR,6,vpnl,2024-02-10_20h54.46.447,alternatingbabyloc,2023.2.2,60.00728932571065,
,,,,,,,,101.64796871899853,11,cars-15.jpg,102.14821428799951,BR,6,vpnl,2024-02-10_20h54.46.447,alternatingbabyloc,2023.2.2,60.00728932571065,
,,,,,,,,102.14821428799951,11,cars-16.jpg,102.64831326399872,BR,6,vpnl,2024-02-10_20h54.46.447,alternatingbabyloc,2023.2.2,60.00728932571065,
,,,,,,,,102.64831326399872,12,blank-25.jpg,103.1482475269986,BR,6,vpnl,2024-02-10_20h54.46.447,alternatingbabyloc,2023.2.2,60.00728932571065,
,,,,,,,,103.1482475269986,12,blank-26.jpg,103.64826122399973,BR,6,vpnl,2024-02-10_20h54.46.447,alternatingbabyloc,2023.2.2,60.00728932571065,
,,,,,,,,103.64826122399973,12,blank-27.jpg,104.148338392999,BR,6,vpnl,2024-02-10_20h54.46.447,alternatingbabyloc,2023.2.2,60.00728932571065,
,,,,,,,,104.148338392999,12,blank-28.jpg,104.64834331499878,BR,6,vpnl,2024-02-10_20h54.46.447,alternatingbabyloc,2023.2.2,60.00728932571065,
,,,,,,,,104.64834331499878,12,blank-29.jpg,105.14835369799948,BR,6,vpnl,2024-02-10_20h54.46.447,alternatingbabyloc,2023.2.2,60.00728932571065,
,,,,,,,,105.14835369799948,12,blank-30.jpg,105.64825823699903,BR,6,vpnl,2024-02-10_20h54.46.447,alternatingbabyloc,2023.2.2,60.00728932571065,
,,,,,,,,105.64825823699903,12,blank-31.jpg,106.14828183399914,BR,6,vpnl,2024-02-10_20h54.46.447,alternatingbabyloc,2023.2.2,60.00728932571065,
,,,,,,,,106.14828183399914,12,blank-32.jpg,106.64784593699915,BR,6,vpnl,2024-02-10_20h54.46.447,alternatingbabyloc,2023.2.2,60.00728932571065,
,,,,,,,,106.64784593699915,13,cars-17.jpg,107.14820433899877,BR,6,vpnl,2024-02-10_20h54.46.447,alternatingbabyloc,2023.2.2,60.00728932571065,
,,,,,,,,107.14820433899877,13,cars-18.jpg,107.648140968,BR,6,vpnl,2024-02-10_20h54.46.447,alternatingbabyloc,2023.2.2,60.00728932571065,
,,,,,,,,107.648140968,13,cars-19.jpg,108.14822797499983,BR,6,vpnl,2024-02-10_20h54.46.447,alternatingbabyloc,2023.2.2,60.00728932571065,
,,,,,,,,108.14822797499983,13,cars-20.jpg,108.64859325299949,BR,6,vpnl,2024-02-10_20h54.46.447,alternatingbabyloc,2023.2.2,60.00728932571065,
,,,,,,,,108.64859325299949,13,cars-21.jpg,109.14819249499851,BR,6,vpnl,2024-02-10_20h54.46.447,alternatingbabyloc,2023.2.2,60.00728932571065,
,,,,,,,,109.14819249499851,13,cars-22.jpg,109.64806872499867,BR,6,vpnl,2024-02-10_20h54.46.447,alternatingbabyloc,2023.2.2,60.00728932571065,
,,,,,,,,109.64806872499867,13,cars-23.jpg,110.14807813699917,BR,6,vpnl,2024-02-10_20h54.46.447,alternatingbabyloc,2023.2.2,60.00728932571065,
,,,,,,,,110.14807813699917,13,cars-24.jpg,110.64782631900016,BR,6,vpnl,2024-02-10_20h54.46.447,alternatingbabyloc,2023.2.2,60.00728932571065,
,,,,,,,,110.64782631900016,14,hands-17.jpg,111.14809800599869,BR,6,vpnl,2024-02-10_20h54.46.447,alternatingbabyloc,2023.2.2,60.00728932571065,
,,,,,,,,111.14809800599869,14,hands-18.jpg,111.64815960499982,BR,6,vpnl,2024-02-10_20h54.46.447,alternatingbabyloc,2023.2.2,60.00728932571065,
,,,,,,,,111.64815960499982,14,hands-19.jpg,112.14813926499846,BR,6,vpnl,2024-02-10_20h54.46.447,alternatingbabyloc,2023.2.2,60.00728932571065,
,,,,,,,,112.14813926499846,14,hands-20.jpg,112.64780487499957,BR,6,vpnl,2024-02-10_20h54.46.447,alternatingbabyloc,2023.2.2,60.00728932571065,
,,,,,,,,112.64780487499957,14,hands-21.jpg,113.14808717399865,BR,6,vpnl,2024-02-10_20h54.46.447,alternatingbabyloc,2023.2.2,60.00728932571065,
,,,,,,,,113.14808717399865,14,hands-22.jpg,113.64809705999869,BR,6,vpnl,2024-02-10_20h54.46.447,alternatingbabyloc,2023.2.2,60.00728932571065,
,,,,,,,,113.64809705999869,14,hands-23.jpg,114.1480715029993,BR,6,vpnl,2024-02-10_20h54.46.447,alternatingbabyloc,2023.2.2,60.00728932571065,
,,,,,,,,114.1480715029993,14,hands-24.jpg,114.64763255399885,BR,6,vpnl,2024-02-10_20h54.46.447,alternatingbabyloc,2023.2.2,60.00728932571065,
,,,,,,,,114.64763255399885,15,scenes-17.jpg,115.14805388899913,BR,6,vpnl,2024-02-10_20h54.46.447,alternatingbabyloc,2023.2.2,60.00728932571065,
,,,,,,,,115.14805388899913,15,scenes-18.jpg,115.64835307899921,BR,6,vpnl,2024-02-10_20h54.46.447,alternatingbabyloc,2023.2.2,60.00728932571065,
,,,,,,,,115.64835307899921,15,scenes-19.jpg,116.14814090599975,BR,6,vpnl,2024-02-10_20h54.46.447,alternatingbabyloc,2023.2.2,60.00728932571065,
,,,,,,,,116.14814090599975,15,scenes-20.jpg,116.64795505499933,BR,6,vpnl,2024-02-10_20h54.46.447,alternatingbabyloc,2023.2.2,60.00728932571065,
,,,,,,,,116.64795505499933,15,scenes-21.jpg,117.14790311599972,BR,6,vpnl,2024-02-10_20h54.46.447,alternatingbabyloc,2023.2.2,60.00728932571065,
,,,,,,,,117.14790311599972,15,scenes-22.jpg,117.6479720319985,BR,6,vpnl,2024-02-10_20h54.46.447,alternatingbabyloc,2023.2.2,60.00728932571065,
,,,,,,,,117.6479720319985,15,scenes-23.jpg,118.14810047199899,BR,6,vpnl,2024-02-10_20h54.46.447,alternatingbabyloc,2023.2.2,60.00728932571065,
,,,,,,,,118.14810047199899,15,scenes-24.jpg,118.64770925799894,BR,6,vpnl,2024-02-10_20h54.46.447,alternatingbabyloc,2023.2.2,60.00728932571065,
,,,,,,,,118.64770925799894,16,faces-17.jpg,119.14798783999868,BR,6,vpnl,2024-02-10_20h54.46.447,alternatingbabyloc,2023.2.2,60.00728932571065,
,,,,,,,,119.14798783999868,16,faces-18.jpg,119.6478407529994,BR,6,vpnl,2024-02-10_20h54.46.447,alternatingbabyloc,2023.2.2,60.00728932571065,
,,,,,,,,119.6478407529994,16,faces-19.jpg,,BR,6,vpnl,2024-02-10_20h54.46.447,alternatingbabyloc,2023.2.2,60.00728932571065,
,,,,,,,,120.14800432599986,16,faces-20.jpg,120.64796718599973,BR,6,vpnl,2024-02-10_20h54.46.447,alternatingbabyloc,2023.2.2,60.00728932571065,
,,,,,,,,120.64796718599973,16,faces-21.jpg,121.14788874999977,BR,6,vpnl,2024-02-10_20h54.46.447,alternatingbabyloc,2023.2.2,60.00728932571065,
,,,,,,,,121.14788874999977,16,faces-22.jpg,121.64797630099929,BR,6,vpnl,2024-02-10_20h54.46.447,alternatingbabyloc,2023.2.2,60.00728932571065,
,,,,,,,,121.64797630099929,16,faces-23.jpg,122.14807504999953,BR,6,vpnl,2024-02-10_20h54.46.447,alternatingbabyloc,2023.2.2,60.00728932571065,
,,,,,,,,122.14807504999953,16,faces-24.jpg,122.6479336249995,BR,6,vpnl,2024-02-10_20h54.46.447,alternatingbabyloc,2023.2.2,60.00728932571065,
,,,,,,,,122.6479336249995,17,hands-25.jpg,123.14791114999935,BR,6,vpnl,2024-02-10_20h54.46.447,alternatingbabyloc,2023.2.2,60.00728932571065,
,,,,,,,,123.14791114999935,17,hands-26.jpg,123.64789649500017,BR,6,vpnl,2024-02-10_20h54.46.447,alternatingbabyloc,2023.2.2,60.00728932571065,
,,,,,,,,123.64789649500017,17,hands-27.jpg,124.14795234899975,BR,6,vpnl,2024-02-10_20h54.46.447,alternatingbabyloc,2023.2.2,60.00728932571065,
,,,,,,,,124.14795234899975,17,hands-28.jpg,124.64770815599877,BR,6,vpnl,2024-02-10_20h54.46.447,alternatingbabyloc,2023.2.2,60.00728932571065,
,,,,,,,,124.64770815599877,17,hands-29.jpg,125.14791982499992,BR,6,vpnl,2024-02-10_20h54.46.447,alternatingbabyloc,2023.2.2,60.00728932571065,
,,,,,,,,125.14791982499992,17,hands-30.jpg,125.64799050599868,BR,6,vpnl,2024-02-10_20h54.46.447,alternatingbabyloc,2023.2.2,60.00728932571065,
,,,,,,,,125.64799050599868,17,hands-31.jpg,126.14778867399946,BR,6,vpnl,2024-02-10_20h54.46.447,alternatingbabyloc,2023.2.2,60.00728932571065,
,,,,,,,,126.14778867399946,17,hands-32.jpg,126.64751909599909,BR,6,vpnl,2024-02-10_20h54.46.447,alternatingbabyloc,2023.2.2,60.00728932571065,
,,,,,,,,126.64751909599909,18,faces-25.jpg,127.14797213800011,BR,6,vpnl,2024-02-10_20h54.46.447,alternatingbabyloc,2023.2.2,60.00728932571065,
,,,,,,,,127.14797213800011,18,faces-26.jpg,127.64782834200014,BR,6,vpnl,2024-02-10_20h54.46.447,alternatingbabyloc,2023.2.2,60.00728932571065,
,,,,,,,,127.64782834200014,18,faces-27.jpg,128.14799603199936,BR,6,vpnl,2024-02-10_20h54.46.447,alternatingbabyloc,2023.2.2,60.00728932571065,
,,,,,,,,128.14799603199936,18,faces-28.jpg,128.64775718099918,BR,6,vpnl,2024-02-10_20h54.46.447,alternatingbabyloc,2023.2.2,60.00728932571065,
,,,,,,,,128.64775718099918,18,faces-29.jpg,129.1477713539989,BR,6,vpnl,2024-02-10_20h54.46.447,alternatingbabyloc,2023.2.2,60.00728932571065,
,,,,,,,,129.1477713539989,18,faces-30.jpg,129.64792176799892,BR,6,vpnl,2024-02-10_20h54.46.447,alternatingbabyloc,2023.2.2,60.00728932571065,
,,,,,,,,129.64792176799892,18,faces-31.jpg,130.14780202099973,BR,6,vpnl,2024-02-10_20h54.46.447,alternatingbabyloc,2023.2.2,60.00728932571065,
,,,,,,,,130.14780202099973,18,faces-32.jpg,130.6475023359999,BR,6,vpnl,2024-02-10_20h54.46.447,alternatingbabyloc,2023.2.2,60.00728932571065,
,,,,,,,,130.6475023359999,19,cars-25.jpg,131.147423376,BR,6,vpnl,2024-02-10_20h54.46.447,alternatingbabyloc,2023.2.2,60.00728932571065,
,,,,,,,,131.147423376,19,cars-26.jpg,131.64769294100006,BR,6,vpnl,2024-02-10_20h54.46.447,alternatingbabyloc,2023.2.2,60.00728932571065,
,,,,,,,,131.64769294100006,19,cars-27.jpg,132.14770943700023,BR,6,vpnl,2024-02-10_20h54.46.447,alternatingbabyloc,2023.2.2,60.00728932571065,
,,,,,,,,132.14770943700023,19,cars-28.jpg,132.64773108000009,BR,6,vpnl,2024-02-10_20h54.46.447,alternatingbabyloc,2023.2.2,60.00728932571065,
,,,,,,,,132.64773108000009,19,cars-29.jpg,133.14784504499949,BR,6,vpnl,2024-02-10_20h54.46.447,alternatingbabyloc,2023.2.2,60.00728932571065,
,,,,,,,,133.14784504499949,19,cars-30.jpg,133.64780966199942,BR,6,vpnl,2024-02-10_20h54.46.447,alternatingbabyloc,2023.2.2,60.00728932571065,
,,,,,,,,133.64780966199942,19,cars-31.jpg,134.14795375499853,BR,6,vpnl,2024-02-10_20h54.46.447,alternatingbabyloc,2023.2.2,60.00728932571065,
,,,,,,,,134.14795375499853,19,cars-32.jpg,134.6474424629996,BR,6,vpnl,2024-02-10_20h54.46.447,alternatingbabyloc,2023.2.2,60.00728932571065,
,,,,,,,,134.6474424629996,20,scenes-25.jpg,135.14757888199892,BR,6,vpnl,2024-02-10_20h54.46.447,alternatingbabyloc,2023.2.2,60.00728932571065,
,,,,,,,,135.14757888199892,20,scenes-26.jpg,135.64764914399893,BR,6,vpnl,2024-02-10_20h54.46.447,alternatingbabyloc,2023.2.2,60.00728932571065,
,,,,,,,,135.64764914399893,20,scenes-27.jpg,136.14768873899993,BR,6,vpnl,2024-02-10_20h54.46.447,alternatingbabyloc,2023.2.2,60.00728932571065,
,,,,,,,,136.14768873899993,20,scenes-28.jpg,136.64775177699994,BR,6,vpnl,2024-02-10_20h54.46.447,alternatingbabyloc,2023.2.2,60.00728932571065,
,,,,,,,,136.64775177699994,20,scenes-29.jpg,137.1475744499985,BR,6,vpnl,2024-02-10_20h54.46.447,alternatingbabyloc,2023.2.2,60.00728932571065,
,,,,,,,,137.1475744499985,20,scenes-30.jpg,137.6475651389992,BR,6,vpnl,2024-02-10_20h54.46.447,alternatingbabyloc,2023.2.2,60.00728932571065,
,,,,,,,,137.6475651389992,20,scenes-31.jpg,138.1475577279998,BR,6,vpnl,2024-02-10_20h54.46.447,alternatingbabyloc,2023.2.2,60.00728932571065,
,,,,,,,,138.1475577279998,20,scenes-32.jpg,138.647804025999,BR,6,vpnl,2024-02-10_20h54.46.447,alternatingbabyloc,2023.2.2,60.00728932571065,
,,,,,,,,138.647804025999,21,blank-33.jpg,139.1476387849998,BR,6,vpnl,2024-02-10_20h54.46.447,alternatingbabyloc,2023.2.2,60.00728932571065,
,,,,,,,,139.1476387849998,21,blank-34.jpg,139.64747652699953,BR,6,vpnl,2024-02-10_20h54.46.447,alternatingbabyloc,2023.2.2,60.00728932571065,
,,,,,,,,139.64747652699953,21,blank-35.jpg,140.1475205379993,BR,6,vpnl,2024-02-10_20h54.46.447,alternatingbabyloc,2023.2.2,60.00728932571065,
,,,,,,,,140.1475205379993,21,blank-36.jpg,140.64762535699992,BR,6,vpnl,2024-02-10_20h54.46.447,alternatingbabyloc,2023.2.2,60.00728932571065,
,,,,,,,,140.64762535699992,21,blank-37.jpg,141.14778734599895,BR,6,vpnl,2024-02-10_20h54.46.447,alternatingbabyloc,2023.2.2,60.00728932571065,
,,,,,,,,141.14778734599895,21,blank-38.jpg,141.6475928009986,BR,6,vpnl,2024-02-10_20h54.46.447,alternatingbabyloc,2023.2.2,60.00728932571065,
,,,,,,,,141.6475928009986,21,blank-39.jpg,142.1473799209998,BR,6,vpnl,2024-02-10_20h54.46.447,alternatingbabyloc,2023.2.2,60.00728932571065,
,,,,,,,,142.1473799209998,21,blank-40.jpg,142.64757284299958,BR,6,vpnl,2024-02-10_20h54.46.447,alternatingbabyloc,2023.2.2,60.00728932571065,
,,,,,,,,142.64757284299958,22,faces-33.jpg,143.14764975399885,BR,6,vpnl,2024-02-10_20h54.46.447,alternatingbabyloc,2023.2.2,60.00728932571065,
,,,,,,,,143.14764975399885,22,faces-34.jpg,143.64775568699952,BR,6,vpnl,2024-02-10_20h54.46.447,alternatingbabyloc,2023.2.2,60.00728932571065,
,,,,,,,,143.64775568699952,22,faces-35.jpg,144.14777994799988,BR,6,vpnl,2024-02-10_20h54.46.447,alternatingbabyloc,2023.2.2,60.00728932571065,
,,,,,,,,144.14777994799988,22,faces-36.jpg,144.64747134499885,BR,6,vpnl,2024-02-10_20h54.46.447,alternatingbabyloc,2023.2.2,60.00728932571065,
,,,,,,,,144.64747134499885,22,faces-37.jpg,145.14742045599996,BR,6,vpnl,2024-02-10_20h54.46.447,alternatingbabyloc,2023.2.2,60.00728932571065,
,,,,,,,,145.14742045599996,22,faces-38.jpg,145.64755393499945,BR,6,vpnl,2024-02-10_20h54.46.447,alternatingbabyloc,2023.2.2,60.00728932571065,
,,,,,,,,145.64755393499945,22,faces-39.jpg,146.14756479099924,BR,6,vpnl,2024-02-10_20h54.46.447,alternatingbabyloc,2023.2.2,60.00728932571065,
,,,,,,,,146.14756479099924,22,faces-40.jpg,146.6471446279993,BR,6,vpnl,2024-02-10_20h54.46.447,alternatingbabyloc,2023.2.2,60.00728932571065,
,,,,,,,,146.6471446279993,23,blank-41.jpg,147.14727268999923,BR,6,vpnl,2024-02-10_20h54.46.447,alternatingbabyloc,2023.2.2,60.00728932571065,
,,,,,,,,147.14727268999923,23,blank-42.jpg,147.6474062549987,BR,6,vpnl,2024-02-10_20h54.46.447,alternatingbabyloc,2023.2.2,60.00728932571065,
,,,,,,,,147.6474062549987,23,blank-43.jpg,148.14760220099924,BR,6,vpnl,2024-02-10_20h54.46.447,alternatingbabyloc,2023.2.2,60.00728932571065,
,,,,,,,,148.14760220099924,23,blank-44.jpg,148.6476028500001,BR,6,vpnl,2024-02-10_20h54.46.447,alternatingbabyloc,2023.2.2,60.00728932571065,
,,,,,,,,148.6476028500001,23,blank-45.jpg,149.1473867779987,BR,6,vpnl,2024-02-10_20h54.46.447,alternatingbabyloc,2023.2.2,60.00728932571065,
,,,,,,,,149.1473867779987,23,blank-46.jpg,149.64727936099916,BR,6,vpnl,2024-02-10_20h54.46.447,alternatingbabyloc,2023.2.2,60.00728932571065,
,,,,,,,,149.64727936099916,23,blank-47.jpg,150.1474785649989,BR,6,vpnl,2024-02-10_20h54.46.447,alternatingbabyloc,2023.2.2,60.00728932571065,
,,,,,,,,150.1474785649989,23,blank-48.jpg,150.647727906,BR,6,vpnl,2024-02-10_20h54.46.447,alternatingbabyloc,2023.2.2,60.00728932571065,
,,,,,,,,150.647727906,24,scenes-33.jpg,151.1469933389999,BR,6,vpnl,2024-02-10_20h54.46.447,alternatingbabyloc,2023.2.2,60.00728932571065,
,,,,,,,,151.1469933389999,24,scenes-34.jpg,151.647309218999,BR,6,vpnl,2024-02-10_20h54.46.447,alternatingbabyloc,2023.2.2,60.00728932571065,
,,,,,,,,151.647309218999,24,scenes-35.jpg,152.15162315399903,BR,6,vpnl,2024-02-10_20h54.46.447,alternatingbabyloc,2023.2.2,60.00728932571065,
,,,,,,,,152.15162315399903,24,scenes-36.jpg,,BR,6,vpnl,2024-02-10_20h54.46.447,alternatingbabyloc,2023.2.2,60.00728932571065,
,,,,,,,,152.66410829599954,24,scenes-37.jpg,,BR,6,vpnl,2024-02-10_20h54.46.447,alternatingbabyloc,2023.2.2,60.00728932571065,
,,,,,,,,153.16406078599903,24,scenes-38.jpg,,BR,6,vpnl,2024-02-10_20h54.46.447,alternatingbabyloc,2023.2.2,60.00728932571065,
,,,,,,,,153.66386081499877,24,scenes-39.jpg,,BR,6,vpnl,2024-02-10_20h54.46.447,alternatingbabyloc,2023.2.2,60.00728932571065,
,,,,,,,,154.1639783189985,24,scenes-40.jpg,,BR,6,vpnl,2024-02-10_20h54.46.447,alternatingbabyloc,2023.2.2,60.00728932571065,
,,,,,,,,154.664095094,25,hands-33.jpg,,BR,6,vpnl,2024-02-10_20h54.46.447,alternatingbabyloc,2023.2.2,60.00728932571065,
,,,,,,,,155.16409790299986,25,hands-34.jpg,,BR,6,vpnl,2024-02-10_20h54.46.447,alternatingbabyloc,2023.2.2,60.00728932571065,
,,,,,,,,155.66385985599845,25,hands-35.jpg,,BR,6,vpnl,2024-02-10_20h54.46.447,alternatingbabyloc,2023.2.2,60.00728932571065,
,,,,,,,,156.16371840699867,25,hands-36.jpg,,BR,6,vpnl,2024-02-10_20h54.46.447,alternatingbabyloc,2023.2.2,60.00728932571065,
,,,,,,,,156.663951687,25,hands-37.jpg,,BR,6,vpnl,2024-02-10_20h54.46.447,alternatingbabyloc,2023.2.2,60.00728932571065,
,,,,,,,,157.1640465519995,25,hands-38.jpg,,BR,6,vpnl,2024-02-10_20h54.46.447,alternatingbabyloc,2023.2.2,60.00728932571065,
,,,,,,,,157.66458134499953,25,hands-39.jpg,,BR,6,vpnl,2024-02-10_20h54.46.447,alternatingbabyloc,2023.2.2,60.00728932571065,
,,,,,,,,158.1639234689992,25,hands-40.jpg,,BR,6,vpnl,2024-02-10_20h54.46.447,alternatingbabyloc,2023.2.2,60.00728932571065,
,,,,,,,,158.66387666099945,26,cars-33.jpg,,BR,6,vpnl,2024-02-10_20h54.46.447,alternatingbabyloc,2023.2.2,60.00728932571065,
,,,,,,,,159.16394594699887,26,cars-34.jpg,,BR,6,vpnl,2024-02-10_20h54.46.447,alternatingbabyloc,2023.2.2,60.00728932571065,
,,,,,,,,159.6639968139989,26,cars-35.jpg,,BR,6,vpnl,2024-02-10_20h54.46.447,alternatingbabyloc,2023.2.2,60.00728932571065,
,,,,,,,,160.16366355699938,26,cars-36.jpg,,BR,6,vpnl,2024-02-10_20h54.46.447,alternatingbabyloc,2023.2.2,60.00728932571065,
,,,,,,,,160.6638048629993,26,cars-37.jpg,,BR,6,vpnl,2024-02-10_20h54.46.447,alternatingbabyloc,2023.2.2,60.00728932571065,
,,,,,,,,161.16376329599916,26,cars-38.jpg,,BR,6,vpnl,2024-02-10_20h54.46.447,alternatingbabyloc,2023.2.2,60.00728932571065,
,,,,,,,,161.66385704299864,26,cars-39.jpg,,BR,6,vpnl,2024-02-10_20h54.46.447,alternatingbabyloc,2023.2.2,60.00728932571065,
,,,,,,,,162.16396798999995,26,cars-40.jpg,,BR,6,vpnl,2024-02-10_20h54.46.447,alternatingbabyloc,2023.2.2,60.00728932571065,
,,,,,,,,162.6636979549985,27,blank-49.jpg,,BR,6,vpnl,2024-02-10_20h54.46.447,alternatingbabyloc,2023.2.2,60.00728932571065,
,,,,,,,,163.16378486800022,27,blank-50.jpg,,BR,6,vpnl,2024-02-10_20h54.46.447,alternatingbabyloc,2023.2.2,60.00728932571065,
,,,,,,,,163.6638844809986,27,blank-51.jpg,,BR,6,vpnl,2024-02-10_20h54.46.447,alternatingbabyloc,2023.2.2,60.00728932571065,
,,,,,,,,164.16402559999915,27,blank-52.jpg,,BR,6,vpnl,2024-02-10_20h54.46.447,alternatingbabyloc,2023.2.2,60.00728932571065,
,,,,,,,,164.66404439500002,27,blank-53.jpg,,BR,6,vpnl,2024-02-10_20h54.46.447,alternatingbabyloc,2023.2.2,60.00728932571065,
,,,,,,,,165.16359619499963,27,blank-54.jpg,,BR,6,vpnl,2024-02-10_20h54.46.447,alternatingbabyloc,2023.2.2,60.00728932571065,
,,,,,,,,165.663856105999,27,blank-55.jpg,,BR,6,vpnl,2024-02-10_20h54.46.447,alternatingbabyloc,2023.2.2,60.00728932571065,
,,,,,,,,166.16377202799958,27,blank-56.jpg,,BR,6,vpnl,2024-02-10_20h54.46.447,alternatingbabyloc,2023.2.2,60.00728932571065,
,,,,,,,,166.66369989699888,28,scenes-41.jpg,,BR,6,vpnl,2024-02-10_20h54.46.447,alternatingbabyloc,2023.2.2,60.00728932571065,
,,,,,,,,167.16371457899913,28,scenes-42.jpg,,BR,6,vpnl,2024-02-10_20h54.46.447,alternatingbabyloc,2023.2.2,60.00728932571065,
,,,,,,,,167.66371392399924,28,scenes-43.jpg,,BR,6,vpnl,2024-02-10_20h54.46.447,alternatingbabyloc,2023.2.2,60.00728932571065,
,,,,,,,,168.16387331499936,28,scenes-44.jpg,,BR,6,vpnl,2024-02-10_20h54.46.447,alternatingbabyloc,2023.2.2,60.00728932571065,
,,,,,,,,168.6636768970002,28,scenes-45.jpg,,BR,6,vpnl,2024-02-10_20h54.46.447,alternatingbabyloc,2023.2.2,60.00728932571065,
,,,,,,,,169.16374368499964,28,scenes-46.jpg,,BR,6,vpnl,2024-02-10_20h54.46.447,alternatingbabyloc,2023.2.2,60.00728932571065,
,,,,,,,,169.6637935359995,28,scenes-47.jpg,,BR,6,vpnl,2024-02-10_20h54.46.447,alternatingbabyloc,2023.2.2,60.00728932571065,
,,,,,,,,170.1638375679995,28,scenes-48.jpg,,BR,6,vpnl,2024-02-10_20h54.46.447,alternatingbabyloc,2023.2.2,60.00728932571065,
,,,,,,,,170.66354043299907,29,faces-41.jpg,,BR,6,vpnl,2024-02-10_20h54.46.447,alternatingbabyloc,2023.2.2,60.00728932571065,
,,,,,,,,171.16364599199915,29,faces-42.jpg,,BR,6,vpnl,2024-02-10_20h54.46.447,alternatingbabyloc,2023.2.2,60.00728932571065,
,,,,,,,,171.6640420849999,29,faces-43.jpg,,BR,6,vpnl,2024-02-10_20h54.46.447,alternatingbabyloc,2023.2.2,60.00728932571065,
,,,,,,,,172.16389441999854,29,faces-44.jpg,,BR,6,vpnl,2024-02-10_20h54.46.447,alternatingbabyloc,2023.2.2,60.00728932571065,
,,,,,,,,172.66370392499994,29,faces-45.jpg,,BR,6,vpnl,2024-02-10_20h54.46.447,alternatingbabyloc,2023.2.2,60.00728932571065,
,,,,,,,,173.16355133899924,29,faces-46.jpg,,BR,6,vpnl,2024-02-10_20h54.46.447,alternatingbabyloc,2023.2.2,60.00728932571065,
,,,,,,,,173.6638065369989,29,faces-47.jpg,,BR,6,vpnl,2024-02-10_20h54.46.447,alternatingbabyloc,2023.2.2,60.00728932571065,
,,,,,,,,174.16381143099898,29,faces-48.jpg,,BR,6,vpnl,2024-02-10_20h54.46.447,alternatingbabyloc,2023.2.2,60.00728932571065,
,,,,,,,,174.6636023739993,30,cars-41.jpg,,BR,6,vpnl,2024-02-10_20h54.46.447,alternatingbabyloc,2023.2.2,60.00728932571065,
,,,,,,,,175.16351119999854,30,cars-42.jpg,,BR,6,vpnl,2024-02-10_20h54.46.447,alternatingbabyloc,2023.2.2,60.00728932571065,
,,,,,,,,175.6636059829998,30,cars-43.jpg,,BR,6,vpnl,2024-02-10_20h54.46.447,alternatingbabyloc,2023.2.2,60.00728932571065,
,,,,,,,,176.16380043000026,30,cars-44.jpg,,BR,6,vpnl,2024-02-10_20h54.46.447,alternatingbabyloc,2023.2.2,60.00728932571065,
,,,,,,,,176.66351890499936,30,cars-45.jpg,,BR,6,vpnl,2024-02-10_20h54.46.447,alternatingbabyloc,2023.2.2,60.00728932571065,
,,,,,,,,177.1633472429985,30,cars-46.jpg,,BR,6,vpnl,2024-02-10_20h54.46.447,alternatingbabyloc,2023.2.2,60.00728932571065,
,,,,,,,,177.66355531999943,30,cars-47.jpg,,BR,6,vpnl,2024-02-10_20h54.46.447,alternatingbabyloc,2023.2.2,60.00728932571065,
,,,,,,,,178.1635534420002,30,cars-48.jpg,,BR,6,vpnl,2024-02-10_20h54.46.447,alternatingbabyloc,2023.2.2,60.00728932571065,
,,,,,,,,178.66365848999885,31,hands-41.jpg,,BR,6,vpnl,2024-02-10_20h54.46.447,alternatingbabyloc,2023.2.2,60.00728932571065,
,,,,,,,,179.1635269090002,31,hands-42.jpg,,BR,6,vpnl,2024-02-10_20h54.46.447,alternatingbabyloc,2023.2.2,60.00728932571065,
,,,,,,,,179.6635864589989,31,hands-43.jpg,,BR,6,vpnl,2024-02-10_20h54.46.447,alternatingbabyloc,2023.2.2,60.00728932571065,
,,,,,,,,180.1632947449998,31,hands-44.jpg,,BR,6,vpnl,2024-02-10_20h54.46.447,alternatingbabyloc,2023.2.2,60.00728932571065,
,,,,,,,,180.6634926909992,31,hands-45.jpg,,BR,6,vpnl,2024-02-10_20h54.46.447,alternatingbabyloc,2023.2.2,60.00728932571065,
,,,,,,,,181.16356306599846,31,hands-46.jpg,,BR,6,vpnl,2024-02-10_20h54.46.447,alternatingbabyloc,2023.2.2,60.00728932571065,
,,,,,,,,181.66361957499976,31,hands-47.jpg,,BR,6,vpnl,2024-02-10_20h54.46.447,alternatingbabyloc,2023.2.2,60.00728932571065,
,,,,,,,,182.16346605499893,31,hands-48.jpg,,BR,6,vpnl,2024-02-10_20h54.46.447,alternatingbabyloc,2023.2.2,60.00728932571065,
,,,,,,,,182.66337977699914,32,faces-49.jpg,,BR,6,vpnl,2024-02-10_20h54.46.447,alternatingbabyloc,2023.2.2,60.00728932571065,
,,,,,,,,183.16368296899964,32,faces-50.jpg,,BR,6,vpnl,2024-02-10_20h54.46.447,alternatingbabyloc,2023.2.2,60.00728932571065,
,,,,,,,,183.66361348600003,32,faces-51.jpg,,BR,6,vpnl,2024-02-10_20h54.46.447,alternatingbabyloc,2023.2.2,60.00728932571065,
,,,,,,,,184.163287718,32,faces-52.jpg,,BR,6,vpnl,2024-02-10_20h54.46.447,alternatingbabyloc,2023.2.2,60.00728932571065,
,,,,,,,,184.66354625500026,32,faces-53.jpg,,BR,6,vpnl,2024-02-10_20h54.46.447,alternatingbabyloc,2023.2.2,60.00728932571065,
,,,,,,,,185.1634330179986,32,faces-54.jpg,,BR,6,vpnl,2024-02-10_20h54.46.447,alternatingbabyloc,2023.2.2,60.00728932571065,
,,,,,,,,185.66325732299993,32,faces-55.jpg,,BR,6,vpnl,2024-02-10_20h54.46.447,alternatingbabyloc,2023.2.2,60.00728932571065,
,,,,,,,,186.1633276399989,32,faces-56.jpg,,BR,6,vpnl,2024-02-10_20h54.46.447,alternatingbabyloc,2023.2.2,60.00728932571065,
,,,,,,,,186.6676497919998,33,scenes-49.jpg,,BR,6,vpnl,2024-02-10_20h54.46.447,alternatingbabyloc,2023.2.2,60.00728932571065,
,,,,,,,,187.16347942299944,33,scenes-50.jpg,,BR,6,vpnl,2024-02-10_20h54.46.447,alternatingbabyloc,2023.2.2,60.00728932571065,
,,,,,,,,187.6634367079987,33,scenes-51.jpg,,BR,6,vpnl,2024-02-10_20h54.46.447,alternatingbabyloc,2023.2.2,60.00728932571065,
,,,,,,,,188.1633111049996,33,scenes-52.jpg,,BR,6,vpnl,2024-02-10_20h54.46.447,alternatingbabyloc,2023.2.2,60.00728932571065,
,,,,,,,,188.66346222799984,33,scenes-53.jpg,,BR,6,vpnl,2024-02-10_20h54.46.447,alternatingbabyloc,2023.2.2,60.00728932571065,
,,,,,,,,189.16345716700016,33,scenes-54.jpg,,BR,6,vpnl,2024-02-10_20h54.46.447,alternatingbabyloc,2023.2.2,60.00728932571065,
,,,,,,,,189.66332458599936,33,scenes-55.jpg,,BR,6,vpnl,2024-02-10_20h54.46.447,alternatingbabyloc,2023.2.2,60.00728932571065,
,,,,,,,,190.16334032199848,33,scenes-56.jpg,,BR,6,vpnl,2024-02-10_20h54.46.447,alternatingbabyloc,2023.2.2,60.00728932571065,
,,,,,,,,190.66340466399924,34,blank-57.jpg,,BR,6,vpnl,2024-02-10_20h54.46.447,alternatingbabyloc,2023.2.2,60.00728932571065,
,,,,,,,,191.1631514519995,34,blank-58.jpg,,BR,6,vpnl,2024-02-10_20h54.46.447,alternatingbabyloc,2023.2.2,60.00728932571065,
,,,,,,,,191.6633463399994,34,blank-59.jpg,,BR,6,vpnl,2024-02-10_20h54.46.447,alternatingbabyloc,2023.2.2,60.00728932571065,
,,,,,,,,192.16337821699926,34,blank-60.jpg,,BR,6,vpnl,2024-02-10_20h54.46.447,alternatingbabyloc,2023.2.2,60.00728932571065,
,,,,,,,,192.6635863470001,34,blank-61.jpg,,BR,6,vpnl,2024-02-10_20h54.46.447,alternatingbabyloc,2023.2.2,60.00728932571065,
,,,,,,,,193.16326193399982,34,blank-62.jpg,,BR,6,vpnl,2024-02-10_20h54.46.447,alternatingbabyloc,2023.2.2,60.00728932571065,
,,,,,,,,193.64635606199954,34,blank-63.jpg,194.14672454299944,BR,6,vpnl,2024-02-10_20h54.46.447,alternatingbabyloc,2023.2.2,60.00728932571065,
,,,,,,,,194.14672454299944,34,blank-64.jpg,194.64636255999903,BR,6,vpnl,2024-02-10_20h54.46.447,alternatingbabyloc,2023.2.2,60.00728932571065,
,,,,,,,,194.64636255999903,35,hands-49.jpg,195.1464066489989,BR,6,vpnl,2024-02-10_20h54.46.447,alternatingbabyloc,2023.2.2,60.00728932571065,
,,,,,,,,195.1464066489989,35,hands-50.jpg,195.64660932900006,BR,6,vpnl,2024-02-10_20h54.46.447,alternatingbabyloc,2023.2.2,60.00728932571065,
,,,,,,,,195.64660932900006,35,hands-51.jpg,196.14656179899976,BR,6,vpnl,2024-02-10_20h54.46.447,alternatingbabyloc,2023.2.2,60.00728932571065,
,,,,,,,,196.14656179899976,35,hands-52.jpg,196.64647857099953,BR,6,vpnl,2024-02-10_20h54.46.447,alternatingbabyloc,2023.2.2,60.00728932571065,
,,,,,,,,196.64647857099953,35,hands-53.jpg,197.1468677009998,BR,6,vpnl,2024-02-10_20h54.46.447,alternatingbabyloc,2023.2.2,60.00728932571065,
,,,,,,,,197.1468677009998,35,hands-54.jpg,197.64669678399878,BR,6,vpnl,2024-02-10_20h54.46.447,alternatingbabyloc,2023.2.2,60.00728932571065,
,,,,,,,,197.64669678399878,35,hands-55.jpg,198.1464483719992,BR,6,vpnl,2024-02-10_20h54.46.447,alternatingbabyloc,2023.2.2,60.00728932571065,
,,,,,,,,198.1464483719992,35,hands-56.jpg,198.64661109400004,BR,6,vpnl,2024-02-10_20h54.46.447,alternatingbabyloc,2023.2.2,60.00728932571065,
,,,,,,,,198.64661109400004,36,cars-49.jpg,199.1466843899998,BR,6,vpnl,2024-02-10_20h54.46.447,alternatingbabyloc,2023.2.2,60.00728932571065,
,,,,,,,,199.1466843899998,36,cars-50.jpg,199.64680059300008,BR,6,vpnl,2024-02-10_20h54.46.447,alternatingbabyloc,2023.2.2,60.00728932571065,
,,,,,,,,199.64680059300008,36,cars-51.jpg,200.14641483800006,BR,6,vpnl,2024-02-10_20h54.46.447,alternatingbabyloc,2023.2.2,60.00728932571065,
,,,,,,,,200.14641483800006,36,cars-52.jpg,200.6465189319988,BR,6,vpnl,2024-02-10_20h54.46.447,alternatingbabyloc,2023.2.2,60.00728932571065,
,,,,,,,,200.6465189319988,36,cars-53.jpg,201.14661690399953,BR,6,vpnl,2024-02-10_20h54.46.447,alternatingbabyloc,2023.2.2,60.00728932571065,
,,,,,,,,201.14661690399953,36,cars-54.jpg,201.64642297499995,BR,6,vpnl,2024-02-10_20h54.46.447,alternatingbabyloc,2023.2.2,60.00728932571065,
,,,,,,,,201.64642297499995,36,cars-55.jpg,202.14635727199857,BR,6,vpnl,2024-02-10_20h54.46.447,alternatingbabyloc,2023.2.2,60.00728932571065,
,,,,,,,,202.14635727199857,36,cars-56.jpg,202.64618993899967,BR,6,vpnl,2024-02-10_20h54.46.447,alternatingbabyloc,2023.2.2,60.00728932571065,
,,,,,,,,202.64618993899967,37,scenes-57.jpg,203.14644085999862,BR,6,vpnl,2024-02-10_20h54.46.447,alternatingbabyloc,2023.2.2,60.00728932571065,
,,,,,,,,203.14644085999862,37,scenes-58.jpg,203.6463540219993,BR,6,vpnl,2024-02-10_20h54.46.447,alternatingbabyloc,2023.2.2,60.00728932571065,
,,,,,,,,203.6463540219993,37,scenes-59.jpg,204.14653170999918,BR,6,vpnl,2024-02-10_20h54.46.447,alternatingbabyloc,2023.2.2,60.00728932571065,
,,,,,,,,204.14653170999918,37,scenes-60.jpg,204.6462610589988,BR,6,vpnl,2024-02-10_20h54.46.447,alternatingbabyloc,2023.2.2,60.00728932571065,
,,,,,,,,204.6462610589988,37,scenes-61.jpg,205.14624900699891,BR,6,vpnl,2024-02-10_20h54.46.447,alternatingbabyloc,2023.2.2,60.00728932571065,
,,,,,,,,205.14624900699891,37,scenes-62.jpg,205.64638307399946,BR,6,vpnl,2024-02-10_20h54.46.447,alternatingbabyloc,2023.2.2,60.00728932571065,
,,,,,,,,205.64638307399946,37,scenes-63.jpg,206.14657679899938,BR,6,vpnl,2024-02-10_20h54.46.447,alternatingbabyloc,2023.2.2,60.00728932571065,
,,,,,,,,206.14657679899938,37,scenes-64.jpg,206.6463510449994,BR,6,vpnl,2024-02-10_20h54.46.447,alternatingbabyloc,2023.2.2,60.00728932571065,
,,,,,,,,206.6463510449994,38,cars-57.jpg,207.14634358199874,BR,6,vpnl,2024-02-10_20h54.46.447,alternatingbabyloc,2023.2.2,60.00728932571065,
,,,,,,,,207.14634358199874,38,cars-58.jpg,207.64652161399863,BR,6,vpnl,2024-02-10_20h54.46.447,alternatingbabyloc,2023.2.2,60.00728932571065,
,,,,,,,,207.64652161399863,38,cars-59.jpg,208.1462987670002,BR,6,vpnl,2024-02-10_20h54.46.447,alternatingbabyloc,2023.2.2,60.00728932571065,
,,,,,,,,208.1462987670002,38,cars-60.jpg,208.64644909699928,BR,6,vpnl,2024-02-10_20h54.46.447,alternatingbabyloc,2023.2.2,60.00728932571065,
,,,,,,,,208.64644909699928,38,cars-61.jpg,209.14636097399853,BR,6,vpnl,2024-02-10_20h54.46.447,alternatingbabyloc,2023.2.2,60.00728932571065,
,,,,,,,,209.14636097399853,38,cars-62.jpg,209.64621648899993,BR,6,vpnl,2024-02-10_20h54.46.447,alternatingbabyloc,2023.2.2,60.00728932571065,
,,,,,,,,209.64621648899993,38,cars-63.jpg,210.14630452500023,BR,6,vpnl,2024-02-10_20h54.46.447,alternatingbabyloc,2023.2.2,60.00728932571065,
,,,,,,,,210.14630452500023,38,cars-64.jpg,210.6464150769989,BR,6,vpnl,2024-02-10_20h54.46.447,alternatingbabyloc,2023.2.2,60.00728932571065,
,,,,,,,,210.6464150769989,39,hands-57.jpg,211.14626487900023,BR,6,vpnl,2024-02-10_20h54.46.447,alternatingbabyloc,2023.2.2,60.00728932571065,
,,,,,,,,211.14626487900023,39,hands-58.jpg,211.64629032099947,BR,6,vpnl,2024-02-10_20h54.46.447,alternatingbabyloc,2023.2.2,60.00728932571065,
,,,,,,,,211.64629032099947,39,hands-59.jpg,212.146324764999,BR,6,vpnl,2024-02-10_20h54.46.447,alternatingbabyloc,2023.2.2,60.00728932571065,
,,,,,,,,212.146324764999,39,hands-60.jpg,212.64596380199873,BR,6,vpnl,2024-02-10_20h54.46.447,alternatingbabyloc,2023.2.2,60.00728932571065,
,,,,,,,,212.64596380199873,39,hands-61.jpg,213.14623814399965,BR,6,vpnl,2024-02-10_20h54.46.447,alternatingbabyloc,2023.2.2,60.00728932571065,
,,,,,,,,213.14623814399965,39,hands-62.jpg,,BR,6,vpnl,2024-02-10_20h54.46.447,alternatingbabyloc,2023.2.2,60.00728932571065,
,,,,,,,,213.64595034000013,39,hands-63.jpg,214.14642884000023,BR,6,vpnl,2024-02-10_20h54.46.447,alternatingbabyloc,2023.2.2,60.00728932571065,
,,,,,,,,214.14642884000023,39,hands-64.jpg,214.64633556699846,BR,6,vpnl,2024-02-10_20h54.46.447,alternatingbabyloc,2023.2.2,60.00728932571065,
,,,,,,,,214.64633556699846,40,faces-57.jpg,215.14604214399878,BR,6,vpnl,2024-02-10_20h54.46.447,alternatingbabyloc,2023.2.2,60.00728932571065,
,,,,,,,,215.14604214399878,40,faces-58.jpg,215.646260214,BR,6,vpnl,2024-02-10_20h54.46.447,alternatingbabyloc,2023.2.2,60.00728932571065,
,,,,,,,,215.646260214,40,faces-59.jpg,216.14615266799956,BR,6,vpnl,2024-02-10_20h54.46.447,alternatingbabyloc,2023.2.2,60.00728932571065,
,,,,,,,,216.14615266799956,40,faces-60.jpg,216.6458616,BR,6,vpnl,2024-02-10_20h54.46.447,alternatingbabyloc,2023.2.2,60.00728932571065,
,,,,,,,,216.6458616,40,faces-61.jpg,217.14627827599907,BR,6,vpnl,2024-02-10_20h54.46.447,alternatingbabyloc,2023.2.2,60.00728932571065,
,,,,,,,,217.14627827599907,40,faces-62.jpg,217.64627395299976,BR,6,vpnl,2024-02-10_20h54.46.447,alternatingbabyloc,2023.2.2,60.00728932571065,
,,,,,,,,217.64627395299976,40,faces-63.jpg,218.1463550319986,BR,6,vpnl,2024-02-10_20h54.46.447,alternatingbabyloc,2023.2.2,60.00728932571065,
,,,,,,,,218.1463550319986,40,faces-64.jpg,218.64590175299963,BR,6,vpnl,2024-02-10_20h54.46.447,alternatingbabyloc,2023.2.2,60.00728932571065,
,,,,,,,,218.64590175299963,41,blank-65.jpg,219.14609979099987,BR,6,vpnl,2024-02-10_20h54.46.447,alternatingbabyloc,2023.2.2,60.00728932571065,
,,,,,,,,219.14609979099987,41,blank-66.jpg,219.6460553629986,BR,6,vpnl,2024-02-10_20h54.46.447,alternatingbabyloc,2023.2.2,60.00728932571065,
,,,,,,,,219.6460553629986,41,blank-67.jpg,220.1461290999996,BR,6,vpnl,2024-02-10_20h54.46.447,alternatingbabyloc,2023.2.2,60.00728932571065,
,,,,,,,,220.1461290999996,41,blank-68.jpg,220.64573075899898,BR,6,vpnl,2024-02-10_20h54.46.447,alternatingbabyloc,2023.2.2,60.00728932571065,
,,,,,,,,220.64573075899898,41,blank-69.jpg,221.14596290499867,BR,6,vpnl,2024-02-10_20h54.46.447,alternatingbabyloc,2023.2.2,60.00728932571065,
,,,,,,,,221.14596290499867,41,blank-70.jpg,221.64612136399955,BR,6,vpnl,2024-02-10_20h54.46.447,alternatingbabyloc,2023.2.2,60.00728932571065,
,,,,,,,,221.64612136399955,41,blank-71.jpg,222.14627873899917,BR,6,vpnl,2024-02-10_20h54.46.447,alternatingbabyloc,2023.2.2,60.00728932571065,
,,,,,,,,222.14627873899917,41,blank-72.jpg,222.6460912829989,BR,6,vpnl,2024-02-10_20h54.46.447,alternatingbabyloc,2023.2.2,60.00728932571065,
,,,,,,,,222.6460912829989,42,cars-65.jpg,223.1461632649989,BR,6,vpnl,2024-02-10_20h54.46.447,alternatingbabyloc,2023.2.2,60.00728932571065,
,,,,,,,,223.1461632649989,42,cars-66.jpg,223.64631531099985,BR,6,vpnl,2024-02-10_20h54.46.447,alternatingbabyloc,2023.2.2,60.00728932571065,
,,,,,,,,223.64631531099985,42,cars-67.jpg,224.14593760199932,BR,6,vpnl,2024-02-10_20h54.46.447,alternatingbabyloc,2023.2.2,60.00728932571065,
,,,,,,,,224.14593760199932,42,cars-68.jpg,224.6457851289997,BR,6,vpnl,2024-02-10_20h54.46.447,alternatingbabyloc,2023.2.2,60.00728932571065,
,,,,,,,,224.6457851289997,42,cars-69.jpg,225.1457726259996,BR,6,vpnl,2024-02-10_20h54.46.447,alternatingbabyloc,2023.2.2,60.00728932571065,
,,,,,,,,225.1457726259996,42,cars-70.jpg,225.64581629199893,BR,6,vpnl,2024-02-10_20h54.46.447,alternatingbabyloc,2023.2.2,60.00728932571065,
,,,,,,,,225.64581629199893,42,cars-71.jpg,226.14608348099864,BR,6,vpnl,2024-02-10_20h54.46.447,alternatingbabyloc,2023.2.2,60.00728932571065,
,,,,,,,,226.14608348099864,42,cars-72.jpg,226.64614381999854,BR,6,vpnl,2024-02-10_20h54.46.447,alternatingbabyloc,2023.2.2,60.00728932571065,
,,,,,,,,226.64614381999854,43,hands-65.jpg,227.14591063099942,BR,6,vpnl,2024-02-10_20h54.46.447,alternatingbabyloc,2023.2.2,60.00728932571065,
,,,,,,,,227.14591063099942,43,hands-66.jpg,227.64608111599955,BR,6,vpnl,2024-02-10_20h54.46.447,alternatingbabyloc,2023.2.2,60.00728932571065,
,,,,,,,,227.64608111599955,43,hands-67.jpg,228.14622047299963,BR,6,vpnl,2024-02-10_20h54.46.447,alternatingbabyloc,2023.2.2,60.00728932571065,
,,,,,,,,228.14622047299963,43,hands-68.jpg,228.6456354309994,BR,6,vpnl,2024-02-10_20h54.46.447,alternatingbabyloc,2023.2.2,60.00728932571065,
,,,,,,,,228.6456354309994,43,hands-69.jpg,229.14604377599971,BR,6,vpnl,2024-02-10_20h54.46.447,alternatingbabyloc,2023.2.2,60.00728932571065,
,,,,,,,,229.14604377599971,43,hands-70.jpg,229.64619655499882,BR,6,vpnl,2024-02-10_20h54.46.447,alternatingbabyloc,2023.2.2,60.00728932571065,
,,,,,,,,229.64619655499882,43,hands-71.jpg,230.1457767539996,BR,6,vpnl,2024-02-10_20h54.46.447,alternatingbabyloc,2023.2.2,60.00728932571065,
,,,,,,,,230.1457767539996,43,hands-72.jpg,230.64557052300006,BR,6,vpnl,2024-02-10_20h54.46.447,alternatingbabyloc,2023.2.2,60.00728932571065,
,,,,,,,,230.64557052300006,44,blank-73.jpg,231.14616093599943,BR,6,vpnl,2024-02-10_20h54.46.447,alternatingbabyloc,2023.2.2,60.00728932571065,
,,,,,,,,231.14616093599943,44,blank-74.jpg,231.6457164859985,BR,6,vpnl,2024-02-10_20h54.46.447,alternatingbabyloc,2023.2.2,60.00728932571065,
,,,,,,,,231.6457164859985,44,blank-75.jpg,232.14606333200027,BR,6,vpnl,2024-02-10_20h54.46.447,alternatingbabyloc,2023.2.2,60.00728932571065,
,,,,,,,,232.14606333200027,44,blank-76.jpg,232.64566592600022,BR,6,vpnl,2024-02-10_20h54.46.447,alternatingbabyloc,2023.2.2,60.00728932571065,
,,,,,,,,232.64566592600022,44,blank-77.jpg,233.1458058600001,BR,6,vpnl,2024-02-10_20h54.46.447,alternatingbabyloc,2023.2.2,60.00728932571065,
,,,,,,,,233.1458058600001,44,blank-78.jpg,233.6459572169988,BR,6,vpnl,2024-02-10_20h54.46.447,alternatingbabyloc,2023.2.2,60.00728932571065,
,,,,,,,,233.6459572169988,44,blank-79.jpg,234.1456842589996,BR,6,vpnl,2024-02-10_20h54.46.447,alternatingbabyloc,2023.2.2,60.00728932571065,
,,,,,,,,234.1456842589996,44,blank-80.jpg,234.64555637599915,BR,6,vpnl,2024-02-10_20h54.46.447,alternatingbabyloc,2023.2.2,60.00728932571065,
,,,,,,,,234.64555637599915,45,scenes-65.jpg,235.14556211499985,BR,6,vpnl,2024-02-10_20h54.46.447,alternatingbabyloc,2023.2.2,60.00728932571065,
,,,,,,,,235.14556211499985,45,scenes-66.jpg,235.64578012399943,BR,6,vpnl,2024-02-10_20h54.46.447,alternatingbabyloc,2023.2.2,60.00728932571065,
,,,,,,,,235.64578012399943,45,scenes-67.jpg,236.1457100509997,BR,6,vpnl,2024-02-10_20h54.46.447,alternatingbabyloc,2023.2.2,60.00728932571065,
,,,,,,,,236.1457100509997,45,scenes-68.jpg,236.64547561899963,BR,6,vpnl,2024-02-10_20h54.46.447,alternatingbabyloc,2023.2.2,60.00728932571065,
,,,,,,,,236.64547561899963,45,scenes-69.jpg,237.14583898899946,BR,6,vpnl,2024-02-10_20h54.46.447,alternatingbabyloc,2023.2.2,60.00728932571065,
,,,,,,,,237.14583898899946,45,scenes-70.jpg,237.6457757729986,BR,6,vpnl,2024-02-10_20h54.46.447,alternatingbabyloc,2023.2.2,60.00728932571065,
,,,,,,,,237.6457757729986,45,scenes-71.jpg,238.14589018199877,BR,6,vpnl,2024-02-10_20h54.46.447,alternatingbabyloc,2023.2.2,60.00728932571065,
,,,,,,,,238.14589018199877,45,scenes-72.jpg,238.6454869499994,BR,6,vpnl,2024-02-10_20h54.46.447,alternatingbabyloc,2023.2.2,60.00728932571065,
,,,,,,,,238.6454869499994,46,faces-65.jpg,239.1459726689991,BR,6,vpnl,2024-02-10_20h54.46.447,alternatingbabyloc,2023.2.2,60.00728932571065,
,,,,,,,,239.1459726689991,46,faces-66.jpg,239.64548032999846,BR,6,vpnl,2024-02-10_20h54.46.447,alternatingbabyloc,2023.2.2,60.00728932571065,
,,,,,,,,239.64548032999846,46,faces-67.jpg,240.14580044099966,BR,6,vpnl,2024-02-10_20h54.46.447,alternatingbabyloc,2023.2.2,60.00728932571065,
,,,,,,,,240.14580044099966,46,faces-68.jpg,240.64536603099987,BR,6,vpnl,2024-02-10_20h54.46.447,alternatingbabyloc,2023.2.2,60.00728932571065,
,,,,,,,,240.64536603099987,46,faces-69.jpg,241.14552319299946,BR,6,vpnl,2024-02-10_20h54.46.447,alternatingbabyloc,2023.2.2,60.00728932571065,
,,,,,,,,241.14552319299946,46,faces-70.jpg,241.64582576999965,BR,6,vpnl,2024-02-10_20h54.46.447,alternatingbabyloc,2023.2.2,60.00728932571065,
,,,,,,,,241.64582576999965,46,faces-71.jpg,242.14570616299898,BR,6,vpnl,2024-02-10_20h54.46.447,alternatingbabyloc,2023.2.2,60.00728932571065,
,,,,,,,,242.14570616299898,46,faces-72.jpg,242.64529998199941,BR,6,vpnl,2024-02-10_20h54.46.447,alternatingbabyloc,2023.2.2,60.00728932571065,
,,,,,,,,242.64529998199941,47,cars-73.jpg,243.1457363289992,BR,6,vpnl,2024-02-10_20h54.46.447,alternatingbabyloc,2023.2.2,60.00728932571065,
,,,,,,,,243.1457363289992,47,cars-74.jpg,243.64551720099917,BR,6,vpnl,2024-02-10_20h54.46.447,alternatingbabyloc,2023.2.2,60.00728932571065,
,,,,,,,,243.64551720099917,47,cars-75.jpg,244.14587658799974,BR,6,vpnl,2024-02-10_20h54.46.447,alternatingbabyloc,2023.2.2,60.00728932571065,
,,,,,,,,244.14587658799974,47,cars-76.jpg,244.64535695999984,BR,6,vpnl,2024-02-10_20h54.46.447,alternatingbabyloc,2023.2.2,60.00728932571065,
,,,,,,,,244.64535695999984,47,cars-77.jpg,245.14557860499917,BR,6,vpnl,2024-02-10_20h54.46.447,alternatingbabyloc,2023.2.2,60.00728932571065,
,,,,,,,,245.14557860499917,47,cars-78.jpg,245.6456458749999,BR,6,vpnl,2024-02-10_20h54.46.447,alternatingbabyloc,2023.2.2,60.00728932571065,
,,,,,,,,245.6456458749999,47,cars-79.jpg,246.1457029659996,BR,6,vpnl,2024-02-10_20h54.46.447,alternatingbabyloc,2023.2.2,60.00728932571065,
,,,,,,,,246.1457029659996,47,cars-80.jpg,,BR,6,vpnl,2024-02-10_20h54.46.447,alternatingbabyloc,2023.2.2,60.00728932571065,
,,,,,,,,246.64530615699914,48,scenes-73.jpg,247.14535006499864,BR,6,vpnl,2024-02-10_20h54.46.447,alternatingbabyloc,2023.2.2,60.00728932571065,
,,,,,,,,247.14535006499864,48,scenes-74.jpg,247.64558736899926,BR,6,vpnl,2024-02-10_20h54.46.447,alternatingbabyloc,2023.2.2,60.00728932571065,
,,,,,,,,247.64558736899926,48,scenes-75.jpg,248.14530999999988,BR,6,vpnl,2024-02-10_20h54.46.447,alternatingbabyloc,2023.2.2,60.00728932571065,
,,,,,,,,248.14530999999988,48,scenes-76.jpg,248.64538673399875,BR,6,vpnl,2024-02-10_20h54.46.447,alternatingbabyloc,2023.2.2,60.00728932571065,
,,,,,,,,248.64538673399875,48,scenes-77.jpg,249.1455850399998,BR,6,vpnl,2024-02-10_20h54.46.447,alternatingbabyloc,2023.2.2,60.00728932571065,
,,,,,,,,249.1455850399998,48,scenes-78.jpg,249.64536673200018,BR,6,vpnl,2024-02-10_20h54.46.447,alternatingbabyloc,2023.2.2,60.00728932571065,
,,,,,,,,249.64536673200018,48,scenes-79.jpg,250.14540547899924,BR,6,vpnl,2024-02-10_20h54.46.447,alternatingbabyloc,2023.2.2,60.00728932571065,
,,,,,,,,250.14540547899924,48,scenes-80.jpg,250.64515422499971,BR,6,vpnl,2024-02-10_20h54.46.447,alternatingbabyloc,2023.2.2,60.00728932571065,
,,,,,,,,250.64515422499971,49,blank-81.jpg,251.1454849239999,BR,6,vpnl,2024-02-10_20h54.46.447,alternatingbabyloc,2023.2.2,60.00728932571065,
,,,,,,,,251.1454849239999,49,blank-82.jpg,251.64540159399985,BR,6,vpnl,2024-02-10_20h54.46.447,alternatingbabyloc,2023.2.2,60.00728932571065,
,,,,,,,,251.64540159399985,49,blank-83.jpg,252.14554827499887,BR,6,vpnl,2024-02-10_20h54.46.447,alternatingbabyloc,2023.2.2,60.00728932571065,
,,,,,,,,252.14554827499887,49,blank-84.jpg,252.6452077599988,BR,6,vpnl,2024-02-10_20h54.46.447,alternatingbabyloc,2023.2.2,60.00728932571065,
,,,,,,,,252.6452077599988,49,blank-85.jpg,253.14554665299875,BR,6,vpnl,2024-02-10_20h54.46.447,alternatingbabyloc,2023.2.2,60.00728932571065,
,,,,,,,,253.14554665299875,49,blank-86.jpg,253.645556174999,BR,6,vpnl,2024-02-10_20h54.46.447,alternatingbabyloc,2023.2.2,60.00728932571065,
,,,,,,,,253.645556174999,49,blank-87.jpg,254.14548353399914,BR,6,vpnl,2024-02-10_20h54.46.447,alternatingbabyloc,2023.2.2,60.00728932571065,
,,,,,,,,254.14548353399914,49,blank-88.jpg,254.64516936099972,BR,6,vpnl,2024-02-10_20h54.46.447,alternatingbabyloc,2023.2.2,60.00728932571065,
,,,,,,,,254.64516936099972,50,hands-73.jpg,255.1455124539989,BR,6,vpnl,2024-02-10_20h54.46.447,alternatingbabyloc,2023.2.2,60.00728932571065,
,,,,,,,,255.1455124539989,50,hands-74.jpg,255.64541751199977,BR,6,vpnl,2024-02-10_20h54.46.447,alternatingbabyloc,2023.2.2,60.00728932571065,
,,,,,,,,255.64541751199977,50,hands-75.jpg,256.1453024909988,BR,6,vpnl,2024-02-10_20h54.46.447,alternatingbabyloc,2023.2.2,60.00728932571065,
,,,,,,,,256.1453024909988,50,hands-76.jpg,256.64518723499896,BR,6,vpnl,2024-02-10_20h54.46.447,alternatingbabyloc,2023.2.2,60.00728932571065,
,,,,,,,,256.64518723499896,50,hands-77.jpg,257.1453742879985,BR,6,vpnl,2024-02-10_20h54.46.447,alternatingbabyloc,2023.2.2,60.00728932571065,
,,,,,,,,257.1453742879985,50,hands-78.jpg,257.64537145400027,BR,6,vpnl,2024-02-10_20h54.46.447,alternatingbabyloc,2023.2.2,60.00728932571065,
,,,,,,,,257.64537145400027,50,hands-79.jpg,258.145146113,BR,6,vpnl,2024-02-10_20h54.46.447,alternatingbabyloc,2023.2.2,60.00728932571065,
,,,,,,,,258.145146113,50,hands-80.jpg,258.6450174040001,BR,6,vpnl,2024-02-10_20h54.46.447,alternatingbabyloc,2023.2.2,60.00728932571065,
,,,,,,,,258.6450174040001,51,faces-73.jpg,259.14546590200007,BR,6,vpnl,2024-02-10_20h54.46.447,alternatingbabyloc,2023.2.2,60.00728932571065,
,,,,,,,,259.14546590200007,51,faces-74.jpg,259.6453330289987,BR,6,vpnl,2024-02-10_20h54.46.447,alternatingbabyloc,2023.2.2,60.00728932571065,
,,,,,,,,259.6453330289987,51,faces-75.jpg,260.1454820399995,BR,6,vpnl,2024-02-10_20h54.46.447,alternatingbabyloc,2023.2.2,60.00728932571065,
,,,,,,,,260.1454820399995,51,faces-76.jpg,260.64499431399963,BR,6,vpnl,2024-02-10_20h54.46.447,alternatingbabyloc,2023.2.2,60.00728932571065,
,,,,,,,,260.64499431399963,51,faces-77.jpg,261.14522059699993,BR,6,vpnl,2024-02-10_20h54.46.447,alternatingbabyloc,2023.2.2,60.00728932571065,
,,,,,,,,261.14522059699993,51,faces-78.jpg,261.64537429200027,BR,6,vpnl,2024-02-10_20h54.46.447,alternatingbabyloc,2023.2.2,60.00728932571065,
,,,,,,,,261.64537429200027,51,faces-79.jpg,262.14546683799927,BR,6,vpnl,2024-02-10_20h54.46.447,alternatingbabyloc,2023.2.2,60.00728932571065,
,,,,,,,,262.14546683799927,51,faces-80.jpg,262.6452400419985,BR,6,vpnl,2024-02-10_20h54.46.447,alternatingbabyloc,2023.2.2,60.00728932571065,
,,,,,,,,262.6452400419985,52,scenes-81.jpg,263.1453062469991,BR,6,vpnl,2024-02-10_20h54.46.447,alternatingbabyloc,2023.2.2,60.00728932571065,
,,,,,,,,263.1453062469991,52,scenes-82.jpg,263.64527624999937,BR,6,vpnl,2024-02-10_20h54.46.447,alternatingbabyloc,2023.2.2,60.00728932571065,
,,,,,,,,263.64527624999937,52,scenes-83.jpg,264.1451754569989,BR,6,vpnl,2024-02-10_20h54.46.447,alternatingbabyloc,2023.2.2,60.00728932571065,
,,,,,,,,264.1451754569989,52,scenes-84.jpg,264.64539037099894,BR,6,vpnl,2024-02-10_20h54.46.447,alternatingbabyloc,2023.2.2,60.00728932571065,
,,,,,,,,264.64539037099894,52,scenes-85.jpg,265.1452409029989,BR,6,vpnl,2024-02-10_20h54.46.447,alternatingbabyloc,2023.2.2,60.00728932571065,
,,,,,,,,265.1452409029989,52,scenes-86.jpg,265.64493693499935,BR,6,vpnl,2024-02-10_20h54.46.447,alternatingbabyloc,2023.2.2,60.00728932571065,
,,,,,,,,265.64493693499935,52,scenes-87.jpg,266.1449677339988,BR,6,vpnl,2024-02-10_20h54.46.447,alternatingbabyloc,2023.2.2,60.00728932571065,
,,,,,,,,266.1449677339988,52,scenes-88.jpg,266.64527374599857,BR,6,vpnl,2024-02-10_20h54.46.447,alternatingbabyloc,2023.2.2,60.00728932571065,
,,,,,,,,266.64527374599857,53,blank-89.jpg,267.1453560049995,BR,6,vpnl,2024-02-10_20h54.46.447,alternatingbabyloc,2023.2.2,60.00728932571065,
,,,,,,,,267.1453560049995,53,blank-90.jpg,267.64484919200004,BR,6,vpnl,2024-02-10_20h54.46.447,alternatingbabyloc,2023.2.2,60.00728932571065,
,,,,,,,,267.64484919200004,53,blank-91.jpg,268.14521096299904,BR,6,vpnl,2024-02-10_20h54.46.447,alternatingbabyloc,2023.2.2,60.00728932571065,
,,,,,,,,268.14521096299904,53,blank-92.jpg,268.64484153899866,BR,6,vpnl,2024-02-10_20h54.46.447,alternatingbabyloc,2023.2.2,60.00728932571065,
,,,,,,,,268.64484153899866,53,blank-93.jpg,269.144879862999,BR,6,vpnl,2024-02-10_20h54.46.447,alternatingbabyloc,2023.2.2,60.00728932571065,
,,,,,,,,269.144879862999,53,blank-94.jpg,269.64499008599887,BR,6,vpnl,2024-02-10_20h54.46.447,alternatingbabyloc,2023.2.2,60.00728932571065,
,,,,,,,,269.64499008599887,53,blank-95.jpg,270.14514132099976,BR,6,vpnl,2024-02-10_20h54.46.447,alternatingbabyloc,2023.2.2,60.00728932571065,
,,,,,,,,270.14514132099976,53,blank-96.jpg,270.6450507169993,BR,6,vpnl,2024-02-10_20h54.46.447,alternatingbabyloc,2023.2.2,60.00728932571065,
,,,,,,,,270.6450507169993,54,cars-81.jpg,271.1451635739995,BR,6,vpnl,2024-02-10_20h54.46.447,alternatingbabyloc,2023.2.2,60.00728932571065,
,,,,,,,,271.1451635739995,54,cars-82.jpg,271.64513082699887,BR,6,vpnl,2024-02-10_20h54.46.447,alternatingbabyloc,2023.2.2,60.00728932571065,
,,,,,,,,271.64513082699887,54,cars-83.jpg,272.14504152299924,BR,6,vpnl,2024-02-10_20h54.46.447,alternatingbabyloc,2023.2.2,60.00728932571065,
,,,,,,,,272.14504152299924,54,cars-84.jpg,272.6447501799994,BR,6,vpnl,2024-02-10_20h54.46.447,alternatingbabyloc,2023.2.2,60.00728932571065,
,,,,,,,,272.6447501799994,54,cars-85.jpg,273.1446810039997,BR,6,vpnl,2024-02-10_20h54.46.447,alternatingbabyloc,2023.2.2,60.00728932571065,
,,,,,,,,273.1446810039997,54,cars-86.jpg,273.6448334910001,BR,6,vpnl,2024-02-10_20h54.46.447,alternatingbabyloc,2023.2.2,60.00728932571065,
,,,,,,,,273.6448334910001,54,cars-87.jpg,274.14503877099924,BR,6,vpnl,2024-02-10_20h54.46.447,alternatingbabyloc,2023.2.2,60.00728932571065,
,,,,,,,,274.14503877099924,54,cars-88.jpg,274.64471513199896,BR,6,vpnl,2024-02-10_20h54.46.447,alternatingbabyloc,2023.2.2,60.00728932571065,
,,,,,,,,274.64471513199896,55,faces-81.jpg,,BR,6,vpnl,2024-02-10_20h54.46.447,alternatingbabyloc,2023.2.2,60.00728932571065,
,,,,,,,,275.1447325829995,55,faces-82.jpg,275.6448100839989,BR,6,vpnl,2024-02-10_20h54.46.447,alternatingbabyloc,2023.2.2,60.00728932571065,
,,,,,,,,275.6448100839989,55,faces-83.jpg,276.14474602599876,BR,6,vpnl,2024-02-10_20h54.46.447,alternatingbabyloc,2023.2.2,60.00728932571065,
,,,,,,,,276.14474602599876,55,faces-84.jpg,276.6447636399989,BR,6,vpnl,2024-02-10_20h54.46.447,alternatingbabyloc,2023.2.2,60.00728932571065,
,,,,,,,,276.6447636399989,55,faces-85.jpg,277.14467800499915,BR,6,vpnl,2024-02-10_20h54.46.447,alternatingbabyloc,2023.2.2,60.00728932571065,
,,,,,,,,277.14467800499915,55,faces-86.jpg,277.6450448409996,BR,6,vpnl,2024-02-10_20h54.46.447,alternatingbabyloc,2023.2.2,60.00728932571065,
,,,,,,,,277.6450448409996,55,faces-87.jpg,278.1452086829995,BR,6,vpnl,2024-02-10_20h54.46.447,alternatingbabyloc,2023.2.2,60.00728932571065,
,,,,,,,,278.1452086829995,55,faces-88.jpg,278.6447030250001,BR,6,vpnl,2024-02-10_20h54.46.447,alternatingbabyloc,2023.2.2,60.00728932571065,
,,,,,,,,278.6447030250001,56,hands-81.jpg,279.1447537160002,BR,6,vpnl,2024-02-10_20h54.46.447,alternatingbabyloc,2023.2.2,60.00728932571065,
,,,,,,,,279.1447537160002,56,hands-82.jpg,279.6449210619994,BR,6,vpnl,2024-02-10_20h54.46.447,alternatingbabyloc,2023.2.2,60.00728932571065,
,,,,,,,,279.6449210619994,56,hands-83.jpg,280.1447742349992,BR,6,vpnl,2024-02-10_20h54.46.447,alternatingbabyloc,2023.2.2,60.00728932571065,
,,,,,,,,280.1447742349992,56,hands-84.jpg,280.64472886399926,BR,6,vpnl,2024-02-10_20h54.46.447,alternatingbabyloc,2023.2.2,60.00728932571065,
,,,,,,,,280.64472886399926,56,hands-85.jpg,281.1447224069998,BR,6,vpnl,2024-02-10_20h54.46.447,alternatingbabyloc,2023.2.2,60.00728932571065,
,,,,,,,,281.1447224069998,56,hands-86.jpg,281.6446235069998,BR,6,vpnl,2024-02-10_20h54.46.447,alternatingbabyloc,2023.2.2,60.00728932571065,
,,,,,,,,281.6446235069998,56,hands-87.jpg,282.1448459479998,BR,6,vpnl,2024-02-10_20h54.46.447,alternatingbabyloc,2023.2.2,60.00728932571065,
,,,,,,,,282.1448459479998,56,hands-88.jpg,282.6449578009997,BR,6,vpnl,2024-02-10_20h54.46.447,alternatingbabyloc,2023.2.2,60.00728932571065,
,,,,,,,,282.6449578009997,57,cars-89.jpg,283.14512220399956,BR,6,vpnl,2024-02-10_20h54.46.447,alternatingbabyloc,2023.2.2,60.00728932571065,
,,,,,,,,283.14512220399956,57,cars-90.jpg,283.64475589099857,BR,6,vpnl,2024-02-10_20h54.46.447,alternatingbabyloc,2023.2.2,60.00728932571065,
,,,,,,,,283.64475589099857,57,cars-91.jpg,284.14501826000014,BR,6,vpnl,2024-02-10_20h54.46.447,alternatingbabyloc,2023.2.2,60.00728932571065,
,,,,,,,,284.14501826000014,57,cars-92.jpg,284.64518988300006,BR,6,vpnl,2024-02-10_20h54.46.447,alternatingbabyloc,2023.2.2,60.00728932571065,
,,,,,,,,284.64518988300006,57,cars-93.jpg,285.1447962809998,BR,6,vpnl,2024-02-10_20h54.46.447,alternatingbabyloc,2023.2.2,60.00728932571065,
,,,,,,,,285.1447962809998,57,cars-94.jpg,285.6449972319988,BR,6,vpnl,2024-02-10_20h54.46.447,alternatingbabyloc,2023.2.2,60.00728932571065,
,,,,,,,,285.6449972319988,57,cars-95.jpg,286.14486243099964,BR,6,vpnl,2024-02-10_20h54.46.447,alternatingbabyloc,2023.2.2,60.00728932571065,
,,,,,,,,286.14486243099964,57,cars-96.jpg,286.64459815400005,BR,6,vpnl,2024-02-10_20h54.46.447,alternatingbabyloc,2023.2.2,60.00728932571065,
,,,,,,,,286.64459815400005,58,hands-89.jpg,287.1445889129991,BR,6,vpnl,2024-02-10_20h54.46.447,alternatingbabyloc,2023.2.2,60.00728932571065,
,,,,,,,,287.1445889129991,58,hands-90.jpg,287.64482901599877,BR,6,vpnl,2024-02-10_20h54.46.447,alternatingbabyloc,2023.2.2,60.00728932571065,
,,,,,,,,287.64482901599877,58,hands-91.jpg,288.14523569299854,BR,6,vpnl,2024-02-10_20h54.46.447,alternatingbabyloc,2023.2.2,60.00728932571065,
,,,,,,,,288.14523569299854,58,hands-92.jpg,288.64448618200004,BR,6,vpnl,2024-02-10_20h54.46.447,alternatingbabyloc,2023.2.2,60.00728932571065,
,,,,,,,,288.64448618200004,58,hands-93.jpg,289.1445659669989,BR,6,vpnl,2024-02-10_20h54.46.447,alternatingbabyloc,2023.2.2,60.00728932571065,
,,,,,,,,289.1445659669989,58,hands-94.jpg,289.6445545059996,BR,6,vpnl,2024-02-10_20h54.46.447,alternatingbabyloc,2023.2.2,60.00728932571065,
,,,,,,,,289.6445545059996,58,hands-95.jpg,290.14475300899903,BR,6,vpnl,2024-02-10_20h54.46.447,alternatingbabyloc,2023.2.2,60.00728932571065,
,,,,,,,,290.14475300899903,58,hands-96.jpg,290.64485130899993,BR,6,vpnl,2024-02-10_20h54.46.447,alternatingbabyloc,2023.2.2,60.00728932571065,
,,,,,,,,290.64485130899993,59,faces-89.jpg,291.14478259799944,BR,6,vpnl,2024-02-10_20h54.46.447,alternatingbabyloc,2023.2.2,60.00728932571065,
,,,,,,,,291.14478259799944,59,faces-90.jpg,291.64472666300026,BR,6,vpnl,2024-02-10_20h54.46.447,alternatingbabyloc,2023.2.2,60.00728932571065,
,,,,,,,,291.64472666300026,59,faces-91.jpg,292.14472648099945,BR,6,vpnl,2024-02-10_20h54.46.447,alternatingbabyloc,2023.2.2,60.00728932571065,
,,,,,,,,292.14472648099945,59,faces-92.jpg,292.6444506159987,BR,6,vpnl,2024-02-10_20h54.46.447,alternatingbabyloc,2023.2.2,60.00728932571065,
,,,,,,,,292.6444506159987,59,faces-93.jpg,,BR,6,vpnl,2024-02-10_20h54.46.447,alternatingbabyloc,2023.2.2,60.00728932571065,
,,,,,,,,293.1444444869994,59,faces-94.jpg,293.64443798499997,BR,6,vpnl,2024-02-10_20h54.46.447,alternatingbabyloc,2023.2.2,60.00728932571065,
,,,,,,,,293.64443798499997,59,faces-95.jpg,294.1447226809996,BR,6,vpnl,2024-02-10_20h54.46.447,alternatingbabyloc,2023.2.2,60.00728932571065,
,,,,,,,,294.1447226809996,59,faces-96.jpg,294.644442765999,BR,6,vpnl,2024-02-10_20h54.46.447,alternatingbabyloc,2023.2.2,60.00728932571065,
,,,,,,,,294.644442765999,60,scenes-89.jpg,295.14451649500006,BR,6,vpnl,2024-02-10_20h54.46.447,alternatingbabyloc,2023.2.2,60.00728932571065,
,,,,,,,,295.14451649500006,60,scenes-90.jpg,295.6443280980002,BR,6,vpnl,2024-02-10_20h54.46.447,alternatingbabyloc,2023.2.2,60.00728932571065,
,,,,,,,,295.6443280980002,60,scenes-91.jpg,296.1446395589992,BR,6,vpnl,2024-02-10_20h54.46.447,alternatingbabyloc,2023.2.2,60.00728932571065,
,,,,,,,,296.1446395589992,60,scenes-92.jpg,296.64441662399986,BR,6,vpnl,2024-02-10_20h54.46.447,alternatingbabyloc,2023.2.2,60.00728932571065,
,,,,,,,,296.64441662399986,60,scenes-93.jpg,297.1444524749986,BR,6,vpnl,2024-02-10_20h54.46.447,alternatingbabyloc,2023.2.2,60.00728932571065,
,,,,,,,,297.1444524749986,60,scenes-94.jpg,297.6443723479988,BR,6,vpnl,2024-02-10_20h54.46.447,alternatingbabyloc,2023.2.2,60.00728932571065,
,,,,,,,,297.6443723479988,60,scenes-95.jpg,298.1444059339992,BR,6,vpnl,2024-02-10_20h54.46.447,alternatingbabyloc,2023.2.2,60.00728932571065,
,,,,,,,,298.1444059339992,60,scenes-96.jpg,298.6443579709994,BR,6,vpnl,2024-02-10_20h54.46.447,alternatingbabyloc,2023.2.2,60.00728932571065,
,,,,,,,,298.6443579709994,61,blank-97.jpg,299.1445161569991,BR,6,vpnl,2024-02-10_20h54.46.447,alternatingbabyloc,2023.2.2,60.00728932571065,
,,,,,,,,299.1445161569991,61,blank-98.jpg,299.6444908459998,BR,6,vpnl,2024-02-10_20h54.46.447,alternatingbabyloc,2023.2.2,60.00728932571065,
,,,,,,,,299.6444908459998,61,blank-99.jpg,300.144504857999,BR,6,vpnl,2024-02-10_20h54.46.447,alternatingbabyloc,2023.2.2,60.00728932571065,
,,,,,,,,300.144504857999,61,blank-100.jpg,300.64424832999975,BR,6,vpnl,2024-02-10_20h54.46.447,alternatingbabyloc,2023.2.2,60.00728932571065,
,,,,,,,,300.64424832999975,61,blank-101.jpg,301.1445798759996,BR,6,vpnl,2024-02-10_20h54.46.447,alternatingbabyloc,2023.2.2,60.00728932571065,
,,,,,,,,301.1445798759996,61,blank-102.jpg,301.64432679199854,BR,6,vpnl,2024-02-10_20h54.46.447,alternatingbabyloc,2023.2.2,60.00728932571065,
,,,,,,,,301.64432679199854,61,blank-103.jpg,302.1446150789998,BR,6,vpnl,2024-02-10_20h54.46.447,alternatingbabyloc,2023.2.2,60.00728932571065,
,,,,,,,,302.1446150789998,61,blank-104.jpg,302.6442581880001,BR,6,vpnl,2024-02-10_20h54.46.447,alternatingbabyloc,2023.2.2,60.00728932571065,
,,,,,,,,302.6442581880001,62,blank-105.jpg,303.14461755699995,BR,6,vpnl,2024-02-10_20h54.46.447,alternatingbabyloc,2023.2.2,60.00728932571065,
,,,,,,,,303.14461755699995,62,blank-106.jpg,303.6444875830002,BR,6,vpnl,2024-02-10_20h54.46.447,alternatingbabyloc,2023.2.2,60.00728932571065,
,,,,,,,,303.6444875830002,62,blank-107.jpg,304.1443360159992,BR,6,vpnl,2024-02-10_20h54.46.447,alternatingbabyloc,2023.2.2,60.00728932571065,
,,,,,,,,304.1443360159992,62,blank-108.jpg,304.64421438499994,BR,6,vpnl,2024-02-10_20h54.46.447,alternatingbabyloc,2023.2.2,60.00728932571065,
,,,,,,,,304.64421438499994,62,blank-109.jpg,305.1444311609994,BR,6,vpnl,2024-02-10_20h54.46.447,alternatingbabyloc,2023.2.2,60.00728932571065,
,,,,,,,,305.1444311609994,62,blank-110.jpg,305.64420533799967,BR,6,vpnl,2024-02-10_20h54.46.447,alternatingbabyloc,2023.2.2,60.00728932571065,
,,,,,,,,305.64420533799967,62,blank-111.jpg,306.1442239429998,BR,6,vpnl,2024-02-10_20h54.46.447,alternatingbabyloc,2023.2.2,60.00728932571065,
,,,,,,,,306.1442239429998,62,blank-112.jpg,306.675496758,BR,6,vpnl,2024-02-10_20h54.46.447,alternatingbabyloc,2023.2.2,60.00728932571065,
