thisRow.t,notes,waiting_for_trigger_text.started,trigger.started,trigger.keys,trigger.rt,countdown.started,trial.stopped,stimuli.started,condition,stim_name,stimuli.stopped,participant,run,user,date,expName,psychopyVersion,frameRate,
,,659.2293026979987,659.2293026979987,t,93.18327132400009,,,,,,,BR,6,vpnl,2024-02-10_20h54.46.447,alternatingbabyloc,2023.2.2,60.00728932571065,
,,,,,,752.4419564290001,99.2270397430002,758.4555296529998,1,blank-97.jpg,,BR,6,vpnl,2024-02-10_20h54.46.447,alternatingbabyloc,2023.2.2,60.00728932571065,
,,,,,,,,758.9460404429992,1,blank-98.jpg,,BR,6,vpnl,2024-02-10_20h54.46.447,alternatingbabyloc,2023.2.2,60.00728932571065,
,,,,,,,,759.4460602009985,1,blank-99.jpg,,BR,6,vpnl,2024-02-10_20h54.46.447,alternatingbabyloc,2023.2.2,60.00728932571065,
,,,,,,,,759.9447248010001,1,blank-100.jpg,,BR,6,vpnl,2024-02-10_20h54.46.447,alternatingbabyloc,2023.2.2,60.00728932571065,
,,,,,,,,760.4448058589987,1,blank-101.jpg,,BR,6,vpnl,2024-02-10_20h54.46.447,alternatingbabyloc,2023.2.2,60.00728932571065,
,,,,,,,,760.9603813220001,1,blank-102.jpg,,BR,6,vpnl,2024-02-10_20h54.46.447,alternatingbabyloc,2023.2.2,60.00728932571065,
,,,,,,,,761.4602944749986,1,blank-103.jpg,,BR,6,vpnl,2024-02-10_20h54.46.447,alternatingbabyloc,2023.2.2,60.00728932571065,
,,,,,,,,761.9529699719988,1,blank-104.jpg,,BR,6,vpnl,2024-02-10_20h54.46.447,alternatingbabyloc,2023.2.2,60.00728932571065,
,,,,,,,,762.4564428029989,2,scenes-97.jpg,,BR,6,vpnl,2024-02-10_20h54.46.447,alternatingbabyloc,2023.2.2,60.00728932571065,
,,,,,,,,762.9527231259999,2,scenes-98.jpg,,BR,6,vpnl,2024-02-10_20h54.46.447,alternatingbabyloc,2023.2.2,60.00728932571065,
,,,,,,,,763.4526531880001,2,scenes-99.jpg,,BR,6,vpnl,2024-02-10_20h54.46.447,alternatingbabyloc,2023.2.2,60.00728932571065,
,,,,,,,,763.9528625479998,2,scenes-100.jpg,,BR,6,vpnl,2024-02-10_20h54.46.447,alternatingbabyloc,2023.2.2,60.00728932571065,
,,,,,,,,764.4525646229995,2,scenes-101.jpg,,BR,6,vpnl,2024-02-10_20h54.46.447,alternatingbabyloc,2023.2.2,60.00728932571065,
,,,,,,,,764.9527582399987,2,scenes-102.jpg,,BR,6,vpnl,2024-02-10_20h54.46.447,alternatingbabyloc,2023.2.2,60.00728932571065,
,,,,,,,,765.4528137609996,2,scenes-103.jpg,,BR,6,vpnl,2024-02-10_20h54.46.447,alternatingbabyloc,2023.2.2,60.00728932571065,
,,,,,,,,765.9527866249991,2,scenes-104.jpg,,BR,6,vpnl,2024-02-10_20h54.46.447,alternatingbabyloc,2023.2.2,60.00728932571065,
,,,,,,,,766.4525708679994,3,hands-97.jpg,,BR,6,vpnl,2024-02-10_20h54.46.447,alternatingbabyloc,2023.2.2,60.00728932571065,
,,,,,,,,766.9530112140001,3,hands-98.jpg,,BR,6,vpnl,2024-02-10_20h54.46.447,alternatingbabyloc,2023.2.2,60.00728932571065,
,,,,,,,,767.4527792489989,3,hands-99.jpg,,BR,6,vpnl,2024-02-10_20h54.46.447,alternatingbabyloc,2023.2.2,60.00728932571065,
,,,,,,,,767.9528100379994,3,hands-100.jpg,,BR,6,vpnl,2024-02-10_20h54.46.447,alternatingbabyloc,2023.2.2,60.00728932571065,
,,,,,,,,768.4525857459994,3,hands-101.jpg,,BR,6,vpnl,2024-02-10_20h54.46.447,alternatingbabyloc,2023.2.2,60.00728932571065,
,,,,,,,,768.952694308,3,hands-102.jpg,,BR,6,vpnl,2024-02-10_20h54.46.447,alternatingbabyloc,2023.2.2,60.00728932571065,
,,,,,,,,769.452744057,3,hands-103.jpg,,BR,6,vpnl,2024-02-10_20h54.46.447,alternatingbabyloc,2023.2.2,60.00728932571065,
,,,,,,,,769.9528355479997,3,hands-104.jpg,,BR,6,vpnl,2024-02-10_20h54.46.447,alternatingbabyloc,2023.2.2,60.00728932571065,
,,,,,,,,770.4524905029994,4,blank-105.jpg,,BR,6,vpnl,2024-02-10_20h54.46.447,alternatingbabyloc,2023.2.2,60.00728932571065,
,,,,,,,,770.9526540949992,4,blank-106.jpg,,BR,6,vpnl,2024-02-10_20h54.46.447,alternatingbabyloc,2023.2.2,60.00728932571065,
,,,,,,,,771.4526187390002,4,blank-107.jpg,,BR,6,vpnl,2024-02-10_20h54.46.447,alternatingbabyloc,2023.2.2,60.00728932571065,
,,,,,,,,771.9527265809993,4,blank-108.jpg,,BR,6,vpnl,2024-02-10_20h54.46.447,alternatingbabyloc,2023.2.2,60.00728932571065,
,,,,,,,,772.4424389449996,4,blank-109.jpg,,BR,6,vpnl,2024-02-10_20h54.46.447,alternatingbabyloc,2023.2.2,60.00728932571065,
,,,,,,,,772.9525794559995,4,blank-110.jpg,,BR,6,vpnl,2024-02-10_20h54.46.447,alternatingbabyloc,2023.2.2,60.00728932571065,
,,,,,,,,773.4531573309996,4,blank-111.jpg,,BR,6,vpnl,2024-02-10_20h54.46.447,alternatingbabyloc,2023.2.2,60.00728932571065,
,,,,,,,,773.9529613959985,4,blank-112.jpg,,BR,6,vpnl,2024-02-10_20h54.46.447,alternatingbabyloc,2023.2.2,60.00728932571065,
,,,,,,,,774.4524383869993,5,cars-97.jpg,,BR,6,vpnl,2024-02-10_20h54.46.447,alternatingbabyloc,2023.2.2,60.00728932571065,
,,,,,,,,774.9524907039995,5,cars-98.jpg,,BR,6,vpnl,2024-02-10_20h54.46.447,alternatingbabyloc,2023.2.2,60.00728932571065,
,,,,,,,,775.452464865999,5,cars-99.jpg,,BR,6,vpnl,2024-02-10_20h54.46.447,alternatingbabyloc,2023.2.2,60.00728932571065,
,,,,,,,,775.9528300860002,5,cars-100.jpg,,BR,6,vpnl,2024-02-10_20h54.46.447,alternatingbabyloc,2023.2.2,60.00728932571065,
,,,,,,,,776.4523695520002,5,cars-101.jpg,,BR,6,vpnl,2024-02-10_20h54.46.447,alternatingbabyloc,2023.2.2,60.00728932571065,
,,,,,,,,776.9524921499997,5,cars-102.jpg,,BR,6,vpnl,2024-02-10_20h54.46.447,alternatingbabyloc,2023.2.2,60.00728932571065,
,,,,,,,,777.4525893559985,5,cars-103.jpg,,BR,6,vpnl,2024-02-10_20h54.46.447,alternatingbabyloc,2023.2.2,60.00728932571065,
,,,,,,,,777.9526021699985,5,cars-104.jpg,,BR,6,vpnl,2024-02-10_20h54.46.447,alternatingbabyloc,2023.2.2,60.00728932571065,
,,,,,,,,778.452318009,6,faces-97.jpg,,BR,6,vpnl,2024-02-10_20h54.46.447,alternatingbabyloc,2023.2.2,60.00728932571065,
,,,,,,,,778.952492131999,6,faces-98.jpg,,BR,6,vpnl,2024-02-10_20h54.46.447,alternatingbabyloc,2023.2.2,60.00728932571065,
,,,,,,,,779.4527402039985,6,faces-99.jpg,,BR,6,vpnl,2024-02-10_20h54.46.447,alternatingbabyloc,2023.2.2,60.00728932571065,
,,,,,,,,779.9525862519986,6,faces-100.jpg,,BR,6,vpnl,2024-02-10_20h54.46.447,alternatingbabyloc,2023.2.2,60.00728932571065,
,,,,,,,,780.452315855,6,faces-101.jpg,,BR,6,vpnl,2024-02-10_20h54.46.447,alternatingbabyloc,2023.2.2,60.00728932571065,
,,,,,,,,780.9525221189997,6,faces-102.jpg,,BR,6,vpnl,2024-02-10_20h54.46.447,alternatingbabyloc,2023.2.2,60.00728932571065,
,,,,,,,,781.4523550309987,6,faces-103.jpg,,BR,6,vpnl,2024-02-10_20h54.46.447,alternatingbabyloc,2023.2.2,60.00728932571065,
,,,,,,,,781.9525446209991,6,faces-104.jpg,,BR,6,vpnl,2024-02-10_20h54.46.447,alternatingbabyloc,2023.2.2,60.00728932571065,
,,,,,,,,782.4522458969986,7,cars-105.jpg,,BR,6,vpnl,2024-02-10_20h54.46.447,alternatingbabyloc,2023.2.2,60.00728932571065,
,,,,,,,,782.9524295789997,7,cars-106.jpg,,BR,6,vpnl,2024-02-10_20h54.46.447,alternatingbabyloc,2023.2.2,60.00728932571065,
,,,,,,,,783.4525672029995,7,cars-107.jpg,,BR,6,vpnl,2024-02-10_20h54.46.447,alternatingbabyloc,2023.2.2,60.00728932571065,
,,,,,,,,783.9525158619999,7,cars-108.jpg,,BR,6,vpnl,2024-02-10_20h54.46.447,alternatingbabyloc,2023.2.2,60.00728932571065,
,,,,,,,,784.4522186919985,7,cars-109.jpg,,BR,6,vpnl,2024-02-10_20h54.46.447,alternatingbabyloc,2023.2.2,60.00728932571065,
,,,,,,,,784.9523372519998,7,cars-110.jpg,,BR,6,vpnl,2024-02-10_20h54.46.447,alternatingbabyloc,2023.2.2,60.00728932571065,
,,,,,,,,785.4523531949999,7,cars-111.jpg,,BR,6,vpnl,2024-02-10_20h54.46.447,alternatingbabyloc,2023.2.2,60.00728932571065,
,,,,,,,,785.9524788549988,7,cars-112.jpg,,BR,6,vpnl,2024-02-10_20h54.46.447,alternatingbabyloc,2023.2.2,60.00728932571065,
,,,,,,,,786.4522762709985,8,faces-105.jpg,,BR,6,vpnl,2024-02-10_20h54.46.447,alternatingbabyloc,2023.2.2,60.00728932571065,
,,,,,,,,786.9522413129998,8,faces-106.jpg,,BR,6,vpnl,2024-02-10_20h54.46.447,alternatingbabyloc,2023.2.2,60.00728932571065,
,,,,,,,,787.4523562899994,8,faces-107.jpg,,BR,6,vpnl,2024-02-10_20h54.46.447,alternatingbabyloc,2023.2.2,60.00728932571065,
,,,,,,,,787.9525729399993,8,faces-108.jpg,,BR,6,vpnl,2024-02-10_20h54.46.447,alternatingbabyloc,2023.2.2,60.00728932571065,
,,,,,,,,788.4522960369995,8,faces-109.jpg,,BR,6,vpnl,2024-02-10_20h54.46.447,alternatingbabyloc,2023.2.2,60.00728932571065,
,,,,,,,,788.9522810769995,8,faces-110.jpg,,BR,6,vpnl,2024-02-10_20h54.46.447,alternatingbabyloc,2023.2.2,60.00728932571065,
,,,,,,,,789.4524876260002,8,faces-111.jpg,,BR,6,vpnl,2024-02-10_20h54.46.447,alternatingbabyloc,2023.2.2,60.00728932571065,
,,,,,,,,789.9524235839999,8,faces-112.jpg,,BR,6,vpnl,2024-02-10_20h54.46.447,alternatingbabyloc,2023.2.2,60.00728932571065,
,,,,,,,,790.4528848709997,9,hands-105.jpg,,BR,6,vpnl,2024-02-10_20h54.46.447,alternatingbabyloc,2023.2.2,60.00728932571065,
,,,,,,,,790.9522979389985,9,hands-106.jpg,,BR,6,vpnl,2024-02-10_20h54.46.447,alternatingbabyloc,2023.2.2,60.00728932571065,
,,,,,,,,791.4531752929997,9,hands-107.jpg,,BR,6,vpnl,2024-02-10_20h54.46.447,alternatingbabyloc,2023.2.2,60.00728932571065,
,,,,,,,,791.9523678419991,9,hands-108.jpg,,BR,6,vpnl,2024-02-10_20h54.46.447,alternatingbabyloc,2023.2.2,60.00728932571065,
,,,,,,,,792.4520171779986,9,hands-109.jpg,,BR,6,vpnl,2024-02-10_20h54.46.447,alternatingbabyloc,2023.2.2,60.00728932571065,
,,,,,,,,792.952159085,9,hands-110.jpg,,BR,6,vpnl,2024-02-10_20h54.46.447,alternatingbabyloc,2023.2.2,60.00728932571065,
,,,,,,,,793.4961346210002,9,hands-111.jpg,,BR,6,vpnl,2024-02-10_20h54.46.447,alternatingbabyloc,2023.2.2,60.00728932571065,
,,,,,,,,793.9522382790001,9,hands-112.jpg,,BR,6,vpnl,2024-02-10_20h54.46.447,alternatingbabyloc,2023.2.2,60.00728932571065,
,,,,,,,,794.4521131029996,10,scenes-105.jpg,,BR,6,vpnl,2024-02-10_20h54.46.447,alternatingbabyloc,2023.2.2,60.00728932571065,
,,,,,,,,794.9530735439985,10,scenes-106.jpg,,BR,6,vpnl,2024-02-10_20h54.46.447,alternatingbabyloc,2023.2.2,60.00728932571065,
,,,,,,,,795.4519076219985,10,scenes-107.jpg,,BR,6,vpnl,2024-02-10_20h54.46.447,alternatingbabyloc,2023.2.2,60.00728932571065,
,,,,,,,,795.9525537789996,10,scenes-108.jpg,,BR,6,vpnl,2024-02-10_20h54.46.447,alternatingbabyloc,2023.2.2,60.00728932571065,
,,,,,,,,796.4525587890002,10,scenes-109.jpg,,BR,6,vpnl,2024-02-10_20h54.46.447,alternatingbabyloc,2023.2.2,60.00728932571065,
,,,,,,,,796.9520940999992,10,scenes-110.jpg,,BR,6,vpnl,2024-02-10_20h54.46.447,alternatingbabyloc,2023.2.2,60.00728932571065,
,,,,,,,,797.451871416999,10,scenes-111.jpg,,BR,6,vpnl,2024-02-10_20h54.46.447,alternatingbabyloc,2023.2.2,60.00728932571065,
,,,,,,,,797.9522344910001,10,scenes-112.jpg,,BR,6,vpnl,2024-02-10_20h54.46.447,alternatingbabyloc,2023.2.2,60.00728932571065,
,,,,,,,,798.4518787799989,11,blank-113.jpg,,BR,6,vpnl,2024-02-10_20h54.46.447,alternatingbabyloc,2023.2.2,60.00728932571065,
,,,,,,,,798.9563145929988,11,blank-114.jpg,,BR,6,vpnl,2024-02-10_20h54.46.447,alternatingbabyloc,2023.2.2,60.00728932571065,
,,,,,,,,799.4525299649995,11,blank-115.jpg,,BR,6,vpnl,2024-02-10_20h54.46.447,alternatingbabyloc,2023.2.2,60.00728932571065,
,,,,,,,,799.9522630310003,11,blank-116.jpg,,BR,6,vpnl,2024-02-10_20h54.46.447,alternatingbabyloc,2023.2.2,60.00728932571065,
,,,,,,,,800.4519439679989,11,blank-117.jpg,,BR,6,vpnl,2024-02-10_20h54.46.447,alternatingbabyloc,2023.2.2,60.00728932571065,
,,,,,,,,800.9526243330001,11,blank-118.jpg,,BR,6,vpnl,2024-02-10_20h54.46.447,alternatingbabyloc,2023.2.2,60.00728932571065,
,,,,,,,,801.452419751,11,blank-119.jpg,,BR,6,vpnl,2024-02-10_20h54.46.447,alternatingbabyloc,2023.2.2,60.00728932571065,
,,,,,,,,801.9523474599991,11,blank-120.jpg,,BR,6,vpnl,2024-02-10_20h54.46.447,alternatingbabyloc,2023.2.2,60.00728932571065,
,,,,,,,,802.4518224719995,12,faces-113.jpg,,BR,6,vpnl,2024-02-10_20h54.46.447,alternatingbabyloc,2023.2.2,60.00728932571065,
,,,,,,,,802.9522525759985,12,faces-114.jpg,,BR,6,vpnl,2024-02-10_20h54.46.447,alternatingbabyloc,2023.2.2,60.00728932571065,
,,,,,,,,803.4522455159986,12,faces-115.jpg,,BR,6,vpnl,2024-02-10_20h54.46.447,alternatingbabyloc,2023.2.2,60.00728932571065,
,,,,,,,,803.9520464349989,12,faces-116.jpg,,BR,6,vpnl,2024-02-10_20h54.46.447,alternatingbabyloc,2023.2.2,60.00728932571065,
,,,,,,,,804.4521550519985,12,faces-117.jpg,,BR,6,vpnl,2024-02-10_20h54.46.447,alternatingbabyloc,2023.2.2,60.00728932571065,
,,,,,,,,804.9526504489986,12,faces-118.jpg,,BR,6,vpnl,2024-02-10_20h54.46.447,alternatingbabyloc,2023.2.2,60.00728932571065,
,,,,,,,,805.4517122609996,12,faces-119.jpg,,BR,6,vpnl,2024-02-10_20h54.46.447,alternatingbabyloc,2023.2.2,60.00728932571065,
,,,,,,,,805.952208441,12,faces-120.jpg,,BR,6,vpnl,2024-02-10_20h54.46.447,alternatingbabyloc,2023.2.2,60.00728932571065,
,,,,,,,,806.452132376,13,blank-121.jpg,,BR,6,vpnl,2024-02-10_20h54.46.447,alternatingbabyloc,2023.2.2,60.00728932571065,
,,,,,,,,806.9520295509992,13,blank-122.jpg,,BR,6,vpnl,2024-02-10_20h54.46.447,alternatingbabyloc,2023.2.2,60.00728932571065,
,,,,,,,,807.4516937539993,13,blank-123.jpg,,BR,6,vpnl,2024-02-10_20h54.46.447,alternatingbabyloc,2023.2.2,60.00728932571065,
,,,,,,,,807.952005752999,13,blank-124.jpg,,BR,6,vpnl,2024-02-10_20h54.46.447,alternatingbabyloc,2023.2.2,60.00728932571065,
,,,,,,,,808.451886253999,13,blank-125.jpg,,BR,6,vpnl,2024-02-10_20h54.46.447,alternatingbabyloc,2023.2.2,60.00728932571065,
,,,,,,,,808.9553221709994,13,blank-126.jpg,,BR,6,vpnl,2024-02-10_20h54.46.447,alternatingbabyloc,2023.2.2,60.00728932571065,
,,,,,,,,809.4519260609995,13,blank-127.jpg,,BR,6,vpnl,2024-02-10_20h54.46.447,alternatingbabyloc,2023.2.2,60.00728932571065,
,,,,,,,,809.9519870570002,13,blank-128.jpg,,BR,6,vpnl,2024-02-10_20h54.46.447,alternatingbabyloc,2023.2.2,60.00728932571065,
,,,,,,,,810.4521649059989,14,hands-113.jpg,,BR,6,vpnl,2024-02-10_20h54.46.447,alternatingbabyloc,2023.2.2,60.00728932571065,
,,,,,,,,810.9520069789996,14,hands-114.jpg,,BR,6,vpnl,2024-02-10_20h54.46.447,alternatingbabyloc,2023.2.2,60.00728932571065,
,,,,,,,,811.4519078039993,14,hands-115.jpg,,BR,6,vpnl,2024-02-10_20h54.46.447,alternatingbabyloc,2023.2.2,60.00728932571065,
,,,,,,,,811.9519870120002,14,hands-116.jpg,,BR,6,vpnl,2024-02-10_20h54.46.447,alternatingbabyloc,2023.2.2,60.00728932571065,
,,,,,,,,812.4538273419985,14,hands-117.jpg,,BR,6,vpnl,2024-02-10_20h54.46.447,alternatingbabyloc,2023.2.2,60.00728932571065,
,,,,,,,,812.9519693739985,14,hands-118.jpg,,BR,6,vpnl,2024-02-10_20h54.46.447,alternatingbabyloc,2023.2.2,60.00728932571065,
,,,,,,,,813.4355746539986,14,hands-119.jpg,813.9372977479998,BR,6,vpnl,2024-02-10_20h54.46.447,alternatingbabyloc,2023.2.2,60.00728932571065,
,,,,,,,,813.9372977479998,14,hands-120.jpg,,BR,6,vpnl,2024-02-10_20h54.46.447,alternatingbabyloc,2023.2.2,60.00728932571065,
,,,,,,,,814.4537558899992,15,scenes-113.jpg,,BR,6,vpnl,2024-02-10_20h54.46.447,alternatingbabyloc,2023.2.2,60.00728932571065,
,,,,,,,,814.9523612060002,15,scenes-114.jpg,,BR,6,vpnl,2024-02-10_20h54.46.447,alternatingbabyloc,2023.2.2,60.00728932571065,
,,,,,,,,815.4538230099988,15,scenes-115.jpg,,BR,6,vpnl,2024-02-10_20h54.46.447,alternatingbabyloc,2023.2.2,60.00728932571065,
,,,,,,,,815.9523632700002,15,scenes-116.jpg,,BR,6,vpnl,2024-02-10_20h54.46.447,alternatingbabyloc,2023.2.2,60.00728932571065,
,,,,,,,,816.4555411729998,15,scenes-117.jpg,,BR,6,vpnl,2024-02-10_20h54.46.447,alternatingbabyloc,2023.2.2,60.00728932571065,
,,,,,,,,816.9519833059985,15,scenes-118.jpg,,BR,6,vpnl,2024-02-10_20h54.46.447,alternatingbabyloc,2023.2.2,60.00728932571065,
,,,,,,,,817.4543942579985,15,scenes-119.jpg,,BR,6,vpnl,2024-02-10_20h54.46.447,alternatingbabyloc,2023.2.2,60.00728932571065,
,,,,,,,,817.9521152819998,15,scenes-120.jpg,,BR,6,vpnl,2024-02-10_20h54.46.447,alternatingbabyloc,2023.2.2,60.00728932571065,
,,,,,,,,818.4537754949997,16,cars-113.jpg,,BR,6,vpnl,2024-02-10_20h54.46.447,alternatingbabyloc,2023.2.2,60.00728932571065,
,,,,,,,,818.9521828369998,16,cars-114.jpg,,BR,6,vpnl,2024-02-10_20h54.46.447,alternatingbabyloc,2023.2.2,60.00728932571065,
,,,,,,,,819.4542856939988,16,cars-115.jpg,,BR,6,vpnl,2024-02-10_20h54.46.447,alternatingbabyloc,2023.2.2,60.00728932571065,
,,,,,,,,819.9521675059987,16,cars-116.jpg,,BR,6,vpnl,2024-02-10_20h54.46.447,alternatingbabyloc,2023.2.2,60.00728932571065,
,,,,,,,,820.4545121399988,16,cars-117.jpg,,BR,6,vpnl,2024-02-10_20h54.46.447,alternatingbabyloc,2023.2.2,60.00728932571065,
,,,,,,,,820.9520562379985,16,cars-118.jpg,,BR,6,vpnl,2024-02-10_20h54.46.447,alternatingbabyloc,2023.2.2,60.00728932571065,
,,,,,,,,821.4543768229996,16,cars-119.jpg,,BR,6,vpnl,2024-02-10_20h54.46.447,alternatingbabyloc,2023.2.2,60.00728932571065,
,,,,,,,,821.9526444459989,16,cars-120.jpg,,BR,6,vpnl,2024-02-10_20h54.46.447,alternatingbabyloc,2023.2.2,60.00728932571065,
,,,,,,,,822.4540134469989,17,scenes-121.jpg,,BR,6,vpnl,2024-02-10_20h54.46.447,alternatingbabyloc,2023.2.2,60.00728932571065,
,,,,,,,,822.9521070219998,17,scenes-122.jpg,,BR,6,vpnl,2024-02-10_20h54.46.447,alternatingbabyloc,2023.2.2,60.00728932571065,
,,,,,,,,823.4538225879987,17,scenes-123.jpg,,BR,6,vpnl,2024-02-10_20h54.46.447,alternatingbabyloc,2023.2.2,60.00728932571065,
,,,,,,,,823.9517427239989,17,scenes-124.jpg,,BR,6,vpnl,2024-02-10_20h54.46.447,alternatingbabyloc,2023.2.2,60.00728932571065,
,,,,,,,,824.4536725999988,17,scenes-125.jpg,,BR,6,vpnl,2024-02-10_20h54.46.447,alternatingbabyloc,2023.2.2,60.00728932571065,
,,,,,,,,824.9518661929997,17,scenes-126.jpg,,BR,6,vpnl,2024-02-10_20h54.46.447,alternatingbabyloc,2023.2.2,60.00728932571065,
,,,,,,,,825.453729081999,17,scenes-127.jpg,,BR,6,vpnl,2024-02-10_20h54.46.447,alternatingbabyloc,2023.2.2,60.00728932571065,
,,,,,,,,825.9517187339989,17,scenes-128.jpg,,BR,6,vpnl,2024-02-10_20h54.46.447,alternatingbabyloc,2023.2.2,60.00728932571065,
,,,,,,,,826.4536736310001,18,blank-129.jpg,,BR,6,vpnl,2024-02-10_20h54.46.447,alternatingbabyloc,2023.2.2,60.00728932571065,
,,,,,,,,826.9517647739995,18,blank-130.jpg,,BR,6,vpnl,2024-02-10_20h54.46.447,alternatingbabyloc,2023.2.2,60.00728932571065,
,,,,,,,,827.4537131259985,18,blank-131.jpg,,BR,6,vpnl,2024-02-10_20h54.46.447,alternatingbabyloc,2023.2.2,60.00728932571065,
,,,,,,,,827.9517986639985,18,blank-132.jpg,,BR,6,vpnl,2024-02-10_20h54.46.447,alternatingbabyloc,2023.2.2,60.00728932571065,
,,,,,,,,828.4538634439996,18,blank-133.jpg,,BR,6,vpnl,2024-02-10_20h54.46.447,alternatingbabyloc,2023.2.2,60.00728932571065,
,,,,,,,,828.9515843019999,18,blank-134.jpg,,BR,6,vpnl,2024-02-10_20h54.46.447,alternatingbabyloc,2023.2.2,60.00728932571065,
,,,,,,,,829.4536485099998,18,blank-135.jpg,,BR,6,vpnl,2024-02-10_20h54.46.447,alternatingbabyloc,2023.2.2,60.00728932571065,
,,,,,,,,829.952140542,18,blank-136.jpg,,BR,6,vpnl,2024-02-10_20h54.46.447,alternatingbabyloc,2023.2.2,60.00728932571065,
,,,,,,,,830.4537137009993,19,hands-121.jpg,,BR,6,vpnl,2024-02-10_20h54.46.447,alternatingbabyloc,2023.2.2,60.00728932571065,
,,,,,,,,830.9518029399987,19,hands-122.jpg,,BR,6,vpnl,2024-02-10_20h54.46.447,alternatingbabyloc,2023.2.2,60.00728932571065,
,,,,,,,,831.454878700999,19,hands-123.jpg,,BR,6,vpnl,2024-02-10_20h54.46.447,alternatingbabyloc,2023.2.2,60.00728932571065,
,,,,,,,,831.9515488189991,19,hands-124.jpg,,BR,6,vpnl,2024-02-10_20h54.46.447,alternatingbabyloc,2023.2.2,60.00728932571065,
,,,,,,,,832.4537275829989,19,hands-125.jpg,,BR,6,vpnl,2024-02-10_20h54.46.447,alternatingbabyloc,2023.2.2,60.00728932571065,
,,,,,,,,832.9517518029988,19,hands-126.jpg,,BR,6,vpnl,2024-02-10_20h54.46.447,alternatingbabyloc,2023.2.2,60.00728932571065,
,,,,,,,,833.4535681559992,19,hands-127.jpg,,BR,6,vpnl,2024-02-10_20h54.46.447,alternatingbabyloc,2023.2.2,60.00728932571065,
,,,,,,,,833.9516369349985,19,hands-128.jpg,,BR,6,vpnl,2024-02-10_20h54.46.447,alternatingbabyloc,2023.2.2,60.00728932571065,
,,,,,,,,834.4535260849989,20,faces-121.jpg,,BR,6,vpnl,2024-02-10_20h54.46.447,alternatingbabyloc,2023.2.2,60.00728932571065,
,,,,,,,,834.9517074209998,20,faces-122.jpg,,BR,6,vpnl,2024-02-10_20h54.46.447,alternatingbabyloc,2023.2.2,60.00728932571065,
,,,,,,,,835.453551438999,20,faces-123.jpg,,BR,6,vpnl,2024-02-10_20h54.46.447,alternatingbabyloc,2023.2.2,60.00728932571065,
,,,,,,,,835.9517698929994,20,faces-124.jpg,,BR,6,vpnl,2024-02-10_20h54.46.447,alternatingbabyloc,2023.2.2,60.00728932571065,
,,,,,,,,836.453479152,20,faces-125.jpg,,BR,6,vpnl,2024-02-10_20h54.46.447,alternatingbabyloc,2023.2.2,60.00728932571065,
,,,,,,,,836.951626914999,20,faces-126.jpg,,BR,6,vpnl,2024-02-10_20h54.46.447,alternatingbabyloc,2023.2.2,60.00728932571065,
,,,,,,,,837.4535959869991,20,faces-127.jpg,,BR,6,vpnl,2024-02-10_20h54.46.447,alternatingbabyloc,2023.2.2,60.00728932571065,
,,,,,,,,837.9518043379994,20,faces-128.jpg,,BR,6,vpnl,2024-02-10_20h54.46.447,alternatingbabyloc,2023.2.2,60.00728932571065,
,,,,,,,,838.4536079179998,21,cars-121.jpg,,BR,6,vpnl,2024-02-10_20h54.46.447,alternatingbabyloc,2023.2.2,60.00728932571065,
,,,,,,,,838.9516140279993,21,cars-122.jpg,,BR,6,vpnl,2024-02-10_20h54.46.447,alternatingbabyloc,2023.2.2,60.00728932571065,
,,,,,,,,839.4535545999988,21,cars-123.jpg,,BR,6,vpnl,2024-02-10_20h54.46.447,alternatingbabyloc,2023.2.2,60.00728932571065,
,,,,,,,,839.9516028069993,21,cars-124.jpg,,BR,6,vpnl,2024-02-10_20h54.46.447,alternatingbabyloc,2023.2.2,60.00728932571065,
,,,,,,,,840.4535719809992,21,cars-125.jpg,,BR,6,vpnl,2024-02-10_20h54.46.447,alternatingbabyloc,2023.2.2,60.00728932571065,
,,,,,,,,840.9516590819985,21,cars-126.jpg,,BR,6,vpnl,2024-02-10_20h54.46.447,alternatingbabyloc,2023.2.2,60.00728932571065,
,,,,,,,,841.4536039979994,21,cars-127.jpg,,BR,6,vpnl,2024-02-10_20h54.46.447,alternatingbabyloc,2023.2.2,60.00728932571065,
,,,,,,,,841.9514371909991,21,cars-128.jpg,,BR,6,vpnl,2024-02-10_20h54.46.447,alternatingbabyloc,2023.2.2,60.00728932571065,
,,,,,,,,842.4533177729991,22,scenes-129.jpg,,BR,6,vpnl,2024-02-10_20h54.46.447,alternatingbabyloc,2023.2.2,60.00728932571065,
,,,,,,,,842.9512265169997,22,scenes-130.jpg,,BR,6,vpnl,2024-02-10_20h54.46.447,alternatingbabyloc,2023.2.2,60.00728932571065,
,,,,,,,,843.4535035689987,22,scenes-131.jpg,,BR,6,vpnl,2024-02-10_20h54.46.447,alternatingbabyloc,2023.2.2,60.00728932571065,
,,,,,,,,843.9516553719986,22,scenes-132.jpg,,BR,6,vpnl,2024-02-10_20h54.46.447,alternatingbabyloc,2023.2.2,60.00728932571065,
,,,,,,,,844.4534125270002,22,scenes-133.jpg,,BR,6,vpnl,2024-02-10_20h54.46.447,alternatingbabyloc,2023.2.2,60.00728932571065,
,,,,,,,,844.9512948920001,22,scenes-134.jpg,,BR,6,vpnl,2024-02-10_20h54.46.447,alternatingbabyloc,2023.2.2,60.00728932571065,
,,,,,,,,845.4536174039986,22,scenes-135.jpg,,BR,6,vpnl,2024-02-10_20h54.46.447,alternatingbabyloc,2023.2.2,60.00728932571065,
,,,,,,,,845.9513314879987,22,scenes-136.jpg,,BR,6,vpnl,2024-02-10_20h54.46.447,alternatingbabyloc,2023.2.2,60.00728932571065,
,,,,,,,,846.4535692779991,23,blank-137.jpg,,BR,6,vpnl,2024-02-10_20h54.46.447,alternatingbabyloc,2023.2.2,60.00728932571065,
,,,,,,,,846.9516279839991,23,blank-138.jpg,,BR,6,vpnl,2024-02-10_20h54.46.447,alternatingbabyloc,2023.2.2,60.00728932571065,
,,,,,,,,847.4531807149997,23,blank-139.jpg,,BR,6,vpnl,2024-02-10_20h54.46.447,alternatingbabyloc,2023.2.2,60.00728932571065,
,,,,,,,,847.9515691149991,23,blank-140.jpg,,BR,6,vpnl,2024-02-10_20h54.46.447,alternatingbabyloc,2023.2.2,60.00728932571065,
,,,,,,,,848.4533708689996,23,blank-141.jpg,,BR,6,vpnl,2024-02-10_20h54.46.447,alternatingbabyloc,2023.2.2,60.00728932571065,
,,,,,,,,848.9513430199986,23,blank-142.jpg,,BR,6,vpnl,2024-02-10_20h54.46.447,alternatingbabyloc,2023.2.2,60.00728932571065,
,,,,,,,,849.4537235839998,23,blank-143.jpg,,BR,6,vpnl,2024-02-10_20h54.46.447,alternatingbabyloc,2023.2.2,60.00728932571065,
,,,,,,,,849.9511610369991,23,blank-144.jpg,,BR,6,vpnl,2024-02-10_20h54.46.447,alternatingbabyloc,2023.2.2,60.00728932571065,
,,,,,,,,850.4535280089985,24,hands-129.jpg,,BR,6,vpnl,2024-02-10_20h54.46.447,alternatingbabyloc,2023.2.2,60.00728932571065,
,,,,,,,,850.9518015429985,24,hands-130.jpg,,BR,6,vpnl,2024-02-10_20h54.46.447,alternatingbabyloc,2023.2.2,60.00728932571065,
,,,,,,,,851.453333473999,24,hands-131.jpg,,BR,6,vpnl,2024-02-10_20h54.46.447,alternatingbabyloc,2023.2.2,60.00728932571065,
,,,,,,,,851.9515825769995,24,hands-132.jpg,,BR,6,vpnl,2024-02-10_20h54.46.447,alternatingbabyloc,2023.2.2,60.00728932571065,
,,,,,,,,852.4532393879999,24,hands-133.jpg,,BR,6,vpnl,2024-02-10_20h54.46.447,alternatingbabyloc,2023.2.2,60.00728932571065,
,,,,,,,,852.951506809999,24,hands-134.jpg,,BR,6,vpnl,2024-02-10_20h54.46.447,alternatingbabyloc,2023.2.2,60.00728932571065,
,,,,,,,,853.4532447299989,24,hands-135.jpg,,BR,6,vpnl,2024-02-10_20h54.46.447,alternatingbabyloc,2023.2.2,60.00728932571065,
,,,,,,,,853.9513634759987,24,hands-136.jpg,,BR,6,vpnl,2024-02-10_20h54.46.447,alternatingbabyloc,2023.2.2,60.00728932571065,
,,,,,,,,854.4533696459985,25,faces-129.jpg,,BR,6,vpnl,2024-02-10_20h54.46.447,alternatingbabyloc,2023.2.2,60.00728932571065,
,,,,,,,,854.9514828669999,25,faces-130.jpg,,BR,6,vpnl,2024-02-10_20h54.46.447,alternatingbabyloc,2023.2.2,60.00728932571065,
,,,,,,,,855.4533358169992,25,faces-131.jpg,,BR,6,vpnl,2024-02-10_20h54.46.447,alternatingbabyloc,2023.2.2,60.00728932571065,
,,,,,,,,855.9513277999995,25,faces-132.jpg,,BR,6,vpnl,2024-02-10_20h54.46.447,alternatingbabyloc,2023.2.2,60.00728932571065,
,,,,,,,,856.4533694099991,25,faces-133.jpg,,BR,6,vpnl,2024-02-10_20h54.46.447,alternatingbabyloc,2023.2.2,60.00728932571065,
,,,,,,,,856.9511974559991,25,faces-134.jpg,,BR,6,vpnl,2024-02-10_20h54.46.447,alternatingbabyloc,2023.2.2,60.00728932571065,
,,,,,,,,857.4535589509996,25,faces-135.jpg,,BR,6,vpnl,2024-02-10_20h54.46.447,alternatingbabyloc,2023.2.2,60.00728932571065,
,,,,,,,,857.951763654999,25,faces-136.jpg,,BR,6,vpnl,2024-02-10_20h54.46.447,alternatingbabyloc,2023.2.2,60.00728932571065,
,,,,,,,,858.4533407660001,26,cars-129.jpg,,BR,6,vpnl,2024-02-10_20h54.46.447,alternatingbabyloc,2023.2.2,60.00728932571065,
,,,,,,,,858.9512220769993,26,cars-130.jpg,,BR,6,vpnl,2024-02-10_20h54.46.447,alternatingbabyloc,2023.2.2,60.00728932571065,
,,,,,,,,859.4534552969999,26,cars-131.jpg,,BR,6,vpnl,2024-02-10_20h54.46.447,alternatingbabyloc,2023.2.2,60.00728932571065,
,,,,,,,,859.9533273910001,26,cars-132.jpg,,BR,6,vpnl,2024-02-10_20h54.46.447,alternatingbabyloc,2023.2.2,60.00728932571065,
,,,,,,,,860.4529840439991,26,cars-133.jpg,,BR,6,vpnl,2024-02-10_20h54.46.447,alternatingbabyloc,2023.2.2,60.00728932571065,
,,,,,,,,860.951365293,26,cars-134.jpg,,BR,6,vpnl,2024-02-10_20h54.46.447,alternatingbabyloc,2023.2.2,60.00728932571065,
,,,,,,,,861.4536346939985,26,cars-135.jpg,,BR,6,vpnl,2024-02-10_20h54.46.447,alternatingbabyloc,2023.2.2,60.00728932571065,
,,,,,,,,861.951121995,26,cars-136.jpg,,BR,6,vpnl,2024-02-10_20h54.46.447,alternatingbabyloc,2023.2.2,60.00728932571065,
,,,,,,,,862.452935420999,27,faces-137.jpg,,BR,6,vpnl,2024-02-10_20h54.46.447,alternatingbabyloc,2023.2.2,60.00728932571065,
,,,,,,,,862.9513225729988,27,faces-138.jpg,,BR,6,vpnl,2024-02-10_20h54.46.447,alternatingbabyloc,2023.2.2,60.00728932571065,
,,,,,,,,863.4537410489993,27,faces-139.jpg,,BR,6,vpnl,2024-02-10_20h54.46.447,alternatingbabyloc,2023.2.2,60.00728932571065,
,,,,,,,,863.9511143740001,27,faces-140.jpg,,BR,6,vpnl,2024-02-10_20h54.46.447,alternatingbabyloc,2023.2.2,60.00728932571065,
,,,,,,,,864.452983240999,27,faces-141.jpg,,BR,6,vpnl,2024-02-10_20h54.46.447,alternatingbabyloc,2023.2.2,60.00728932571065,
,,,,,,,,864.951571743999,27,faces-142.jpg,,BR,6,vpnl,2024-02-10_20h54.46.447,alternatingbabyloc,2023.2.2,60.00728932571065,
,,,,,,,,865.4533517199998,27,faces-143.jpg,,BR,6,vpnl,2024-02-10_20h54.46.447,alternatingbabyloc,2023.2.2,60.00728932571065,
,,,,,,,,865.9510922720001,27,faces-144.jpg,,BR,6,vpnl,2024-02-10_20h54.46.447,alternatingbabyloc,2023.2.2,60.00728932571065,
,,,,,,,,866.4528382439985,28,blank-1.jpg,,BR,6,vpnl,2024-02-10_20h54.46.447,alternatingbabyloc,2023.2.2,60.00728932571065,
,,,,,,,,866.9513864849996,28,blank-2.jpg,,BR,6,vpnl,2024-02-10_20h54.46.447,alternatingbabyloc,2023.2.2,60.00728932571065,
,,,,,,,,867.4534047149991,28,blank-3.jpg,,BR,6,vpnl,2024-02-10_20h54.46.447,alternatingbabyloc,2023.2.2,60.00728932571065,
,,,,,,,,867.9508375459991,28,blank-4.jpg,,BR,6,vpnl,2024-02-10_20h54.46.447,alternatingbabyloc,2023.2.2,60.00728932571065,
,,,,,,,,868.4527245199988,28,blank-5.jpg,,BR,6,vpnl,2024-02-10_20h54.46.447,alternatingbabyloc,2023.2.2,60.00728932571065,
,,,,,,,,868.951162936999,28,blank-6.jpg,,BR,6,vpnl,2024-02-10_20h54.46.447,alternatingbabyloc,2023.2.2,60.00728932571065,
,,,,,,,,869.4531453379986,28,blank-7.jpg,,BR,6,vpnl,2024-02-10_20h54.46.447,alternatingbabyloc,2023.2.2,60.00728932571065,
,,,,,,,,869.9509753189996,28,blank-8.jpg,,BR,6,vpnl,2024-02-10_20h54.46.447,alternatingbabyloc,2023.2.2,60.00728932571065,
,,,,,,,,870.4525437379998,29,scenes-137.jpg,,BR,6,vpnl,2024-02-10_20h54.46.447,alternatingbabyloc,2023.2.2,60.00728932571065,
,,,,,,,,870.9509421839994,29,scenes-138.jpg,,BR,6,vpnl,2024-02-10_20h54.46.447,alternatingbabyloc,2023.2.2,60.00728932571065,
,,,,,,,,871.453636844999,29,scenes-139.jpg,,BR,6,vpnl,2024-02-10_20h54.46.447,alternatingbabyloc,2023.2.2,60.00728932571065,
,,,,,,,,871.9520455349993,29,scenes-140.jpg,,BR,6,vpnl,2024-02-10_20h54.46.447,alternatingbabyloc,2023.2.2,60.00728932571065,
,,,,,,,,872.4525056589991,29,scenes-141.jpg,,BR,6,vpnl,2024-02-10_20h54.46.447,alternatingbabyloc,2023.2.2,60.00728932571065,
,,,,,,,,872.950845714,29,scenes-142.jpg,,BR,6,vpnl,2024-02-10_20h54.46.447,alternatingbabyloc,2023.2.2,60.00728932571065,
,,,,,,,,873.453133256,29,scenes-143.jpg,,BR,6,vpnl,2024-02-10_20h54.46.447,alternatingbabyloc,2023.2.2,60.00728932571065,
,,,,,,,,873.9509162209997,29,scenes-144.jpg,,BR,6,vpnl,2024-02-10_20h54.46.447,alternatingbabyloc,2023.2.2,60.00728932571065,
,,,,,,,,874.4525529579987,30,cars-137.jpg,,BR,6,vpnl,2024-02-10_20h54.46.447,alternatingbabyloc,2023.2.2,60.00728932571065,
,,,,,,,,874.9515600039995,30,cars-138.jpg,,BR,6,vpnl,2024-02-10_20h54.46.447,alternatingbabyloc,2023.2.2,60.00728932571065,
,,,,,,,,875.4534101849986,30,cars-139.jpg,,BR,6,vpnl,2024-02-10_20h54.46.447,alternatingbabyloc,2023.2.2,60.00728932571065,
,,,,,,,,875.9508408769998,30,cars-140.jpg,,BR,6,vpnl,2024-02-10_20h54.46.447,alternatingbabyloc,2023.2.2,60.00728932571065,
,,,,,,,,876.452779928999,30,cars-141.jpg,,BR,6,vpnl,2024-02-10_20h54.46.447,alternatingbabyloc,2023.2.2,60.00728932571065,
,,,,,,,,876.9510971269992,30,cars-142.jpg,,BR,6,vpnl,2024-02-10_20h54.46.447,alternatingbabyloc,2023.2.2,60.00728932571065,
,,,,,,,,877.4529433089992,30,cars-143.jpg,,BR,6,vpnl,2024-02-10_20h54.46.447,alternatingbabyloc,2023.2.2,60.00728932571065,
,,,,,,,,877.9508804979996,30,cars-144.jpg,,BR,6,vpnl,2024-02-10_20h54.46.447,alternatingbabyloc,2023.2.2,60.00728932571065,
,,,,,,,,878.452303443999,31,hands-137.jpg,,BR,6,vpnl,2024-02-10_20h54.46.447,alternatingbabyloc,2023.2.2,60.00728932571065,
,,,,,,,,878.9510253509998,31,hands-138.jpg,,BR,6,vpnl,2024-02-10_20h54.46.447,alternatingbabyloc,2023.2.2,60.00728932571065,
,,,,,,,,879.4529076759991,31,hands-139.jpg,,BR,6,vpnl,2024-02-10_20h54.46.447,alternatingbabyloc,2023.2.2,60.00728932571065,
,,,,,,,,879.9510872419996,31,hands-140.jpg,,BR,6,vpnl,2024-02-10_20h54.46.447,alternatingbabyloc,2023.2.2,60.00728932571065,
,,,,,,,,880.452458918,31,hands-141.jpg,,BR,6,vpnl,2024-02-10_20h54.46.447,alternatingbabyloc,2023.2.2,60.00728932571065,
,,,,,,,,880.951094344,31,hands-142.jpg,,BR,6,vpnl,2024-02-10_20h54.46.447,alternatingbabyloc,2023.2.2,60.00728932571065,
,,,,,,,,881.4531485509997,31,hands-143.jpg,,BR,6,vpnl,2024-02-10_20h54.46.447,alternatingbabyloc,2023.2.2,60.00728932571065,
,,,,,,,,881.9506955039997,31,hands-144.jpg,,BR,6,vpnl,2024-02-10_20h54.46.447,alternatingbabyloc,2023.2.2,60.00728932571065,
,,,,,,,,882.4524528699985,32,blank-9.jpg,,BR,6,vpnl,2024-02-10_20h54.46.447,alternatingbabyloc,2023.2.2,60.00728932571065,
,,,,,,,,882.9506984399995,32,blank-10.jpg,,BR,6,vpnl,2024-02-10_20h54.46.447,alternatingbabyloc,2023.2.2,60.00728932571065,
,,,,,,,,883.4528747980003,32,blank-11.jpg,,BR,6,vpnl,2024-02-10_20h54.46.447,alternatingbabyloc,2023.2.2,60.00728932571065,
,,,,,,,,883.9509426369987,32,blank-12.jpg,,BR,6,vpnl,2024-02-10_20h54.46.447,alternatingbabyloc,2023.2.2,60.00728932571065,
,,,,,,,,884.4526766919989,32,blank-13.jpg,,BR,6,vpnl,2024-02-10_20h54.46.447,alternatingbabyloc,2023.2.2,60.00728932571065,
,,,,,,,,884.9507907110001,32,blank-14.jpg,,BR,6,vpnl,2024-02-10_20h54.46.447,alternatingbabyloc,2023.2.2,60.00728932571065,
,,,,,,,,885.4529552289987,32,blank-15.jpg,,BR,6,vpnl,2024-02-10_20h54.46.447,alternatingbabyloc,2023.2.2,60.00728932571065,
,,,,,,,,885.9510708519992,32,blank-16.jpg,,BR,6,vpnl,2024-02-10_20h54.46.447,alternatingbabyloc,2023.2.2,60.00728932571065,
,,,,,,,,886.4524090589985,33,hands-1.jpg,,BR,6,vpnl,2024-02-10_20h54.46.447,alternatingbabyloc,2023.2.2,60.00728932571065,
,,,,,,,,886.9508138869987,33,hands-2.jpg,,BR,6,vpnl,2024-02-10_20h54.46.447,alternatingbabyloc,2023.2.2,60.00728932571065,
,,,,,,,,887.452504851999,33,hands-3.jpg,,BR,6,vpnl,2024-02-10_20h54.46.447,alternatingbabyloc,2023.2.2,60.00728932571065,
,,,,,,,,887.9511172059993,33,hands-4.jpg,,BR,6,vpnl,2024-02-10_20h54.46.447,alternatingbabyloc,2023.2.2,60.00728932571065,
,,,,,,,,888.4522334009998,33,hands-5.jpg,,BR,6,vpnl,2024-02-10_20h54.46.447,alternatingbabyloc,2023.2.2,60.00728932571065,
,,,,,,,,888.9506174199996,33,hands-6.jpg,,BR,6,vpnl,2024-02-10_20h54.46.447,alternatingbabyloc,2023.2.2,60.00728932571065,
,,,,,,,,889.4522478170002,33,hands-7.jpg,,BR,6,vpnl,2024-02-10_20h54.46.447,alternatingbabyloc,2023.2.2,60.00728932571065,
,,,,,,,,889.9506341420001,33,hands-8.jpg,,BR,6,vpnl,2024-02-10_20h54.46.447,alternatingbabyloc,2023.2.2,60.00728932571065,
,,,,,,,,890.4525063619985,34,faces-1.jpg,,BR,6,vpnl,2024-02-10_20h54.46.447,alternatingbabyloc,2023.2.2,60.00728932571065,
,,,,,,,,890.9507968889993,34,faces-2.jpg,,BR,6,vpnl,2024-02-10_20h54.46.447,alternatingbabyloc,2023.2.2,60.00728932571065,
,,,,,,,,891.4521598899992,34,faces-3.jpg,,BR,6,vpnl,2024-02-10_20h54.46.447,alternatingbabyloc,2023.2.2,60.00728932571065,
,,,,,,,,891.9516831029996,34,faces-4.jpg,,BR,6,vpnl,2024-02-10_20h54.46.447,alternatingbabyloc,2023.2.2,60.00728932571065,
,,,,,,,,892.4522276319985,34,faces-5.jpg,,BR,6,vpnl,2024-02-10_20h54.46.447,alternatingbabyloc,2023.2.2,60.00728932571065,
,,,,,,,,892.9510290929993,34,faces-6.jpg,,BR,6,vpnl,2024-02-10_20h54.46.447,alternatingbabyloc,2023.2.2,60.00728932571065,
,,,,,,,,893.4527302509996,34,faces-7.jpg,,BR,6,vpnl,2024-02-10_20h54.46.447,alternatingbabyloc,2023.2.2,60.00728932571065,
,,,,,,,,893.9506347440001,34,faces-8.jpg,,BR,6,vpnl,2024-02-10_20h54.46.447,alternatingbabyloc,2023.2.2,60.00728932571065,
,,,,,,,,894.4523135769996,35,cars-1.jpg,,BR,6,vpnl,2024-02-10_20h54.46.447,alternatingbabyloc,2023.2.2,60.00728932571065,
,,,,,,,,894.9509602529997,35,cars-2.jpg,,BR,6,vpnl,2024-02-10_20h54.46.447,alternatingbabyloc,2023.2.2,60.00728932571065,
,,,,,,,,895.4520992500002,35,cars-3.jpg,,BR,6,vpnl,2024-02-10_20h54.46.447,alternatingbabyloc,2023.2.2,60.00728932571065,
,,,,,,,,895.951865527999,35,cars-4.jpg,,BR,6,vpnl,2024-02-10_20h54.46.447,alternatingbabyloc,2023.2.2,60.00728932571065,
,,,,,,,,896.4520461349985,35,cars-5.jpg,,BR,6,vpnl,2024-02-10_20h54.46.447,alternatingbabyloc,2023.2.2,60.00728932571065,
,,,,,,,,896.9508290220001,35,cars-6.jpg,,BR,6,vpnl,2024-02-10_20h54.46.447,alternatingbabyloc,2023.2.2,60.00728932571065,
,,,,,,,,897.4521442409987,35,cars-7.jpg,,BR,6,vpnl,2024-02-10_20h54.46.447,alternatingbabyloc,2023.2.2,60.00728932571065,
,,,,,,,,897.9504711249992,35,cars-8.jpg,,BR,6,vpnl,2024-02-10_20h54.46.447,alternatingbabyloc,2023.2.2,60.00728932571065,
,,,,,,,,898.4521762069999,36,scenes-1.jpg,,BR,6,vpnl,2024-02-10_20h54.46.447,alternatingbabyloc,2023.2.2,60.00728932571065,
,,,,,,,,898.9503663249998,36,scenes-2.jpg,,BR,6,vpnl,2024-02-10_20h54.46.447,alternatingbabyloc,2023.2.2,60.00728932571065,
,,,,,,,,899.4521438119991,36,scenes-3.jpg,,BR,6,vpnl,2024-02-10_20h54.46.447,alternatingbabyloc,2023.2.2,60.00728932571065,
,,,,,,,,899.9505057529987,36,scenes-4.jpg,,BR,6,vpnl,2024-02-10_20h54.46.447,alternatingbabyloc,2023.2.2,60.00728932571065,
,,,,,,,,900.4524549679991,36,scenes-5.jpg,,BR,6,vpnl,2024-02-10_20h54.46.447,alternatingbabyloc,2023.2.2,60.00728932571065,
,,,,,,,,900.9505420690002,36,scenes-6.jpg,,BR,6,vpnl,2024-02-10_20h54.46.447,alternatingbabyloc,2023.2.2,60.00728932571065,
,,,,,,,,901.4521476649988,36,scenes-7.jpg,,BR,6,vpnl,2024-02-10_20h54.46.447,alternatingbabyloc,2023.2.2,60.00728932571065,
,,,,,,,,901.950505199,36,scenes-8.jpg,,BR,6,vpnl,2024-02-10_20h54.46.447,alternatingbabyloc,2023.2.2,60.00728932571065,
,,,,,,,,902.4519956019994,37,blank-17.jpg,,BR,6,vpnl,2024-02-10_20h54.46.447,alternatingbabyloc,2023.2.2,60.00728932571065,
,,,,,,,,902.9505320849985,37,blank-18.jpg,,BR,6,vpnl,2024-02-10_20h54.46.447,alternatingbabyloc,2023.2.2,60.00728932571065,
,,,,,,,,903.4521716519994,37,blank-19.jpg,,BR,6,vpnl,2024-02-10_20h54.46.447,alternatingbabyloc,2023.2.2,60.00728932571065,
,,,,,,,,903.9504785970003,37,blank-20.jpg,,BR,6,vpnl,2024-02-10_20h54.46.447,alternatingbabyloc,2023.2.2,60.00728932571065,
,,,,,,,,904.452315769,37,blank-21.jpg,,BR,6,vpnl,2024-02-10_20h54.46.447,alternatingbabyloc,2023.2.2,60.00728932571065,
,,,,,,,,904.9505571659993,37,blank-22.jpg,,BR,6,vpnl,2024-02-10_20h54.46.447,alternatingbabyloc,2023.2.2,60.00728932571065,
,,,,,,,,905.452166178,37,blank-23.jpg,,BR,6,vpnl,2024-02-10_20h54.46.447,alternatingbabyloc,2023.2.2,60.00728932571065,
,,,,,,,,905.9503291330002,37,blank-24.jpg,,BR,6,vpnl,2024-02-10_20h54.46.447,alternatingbabyloc,2023.2.2,60.00728932571065,
,,,,,,,,906.4520375119992,38,hands-9.jpg,,BR,6,vpnl,2024-02-10_20h54.46.447,alternatingbabyloc,2023.2.2,60.00728932571065,
,,,,,,,,906.9505694139989,38,hands-10.jpg,,BR,6,vpnl,2024-02-10_20h54.46.447,alternatingbabyloc,2023.2.2,60.00728932571065,
,,,,,,,,907.4524210439995,38,hands-11.jpg,,BR,6,vpnl,2024-02-10_20h54.46.447,alternatingbabyloc,2023.2.2,60.00728932571065,
,,,,,,,,907.9505176999992,38,hands-12.jpg,,BR,6,vpnl,2024-02-10_20h54.46.447,alternatingbabyloc,2023.2.2,60.00728932571065,
,,,,,,,,908.4522224759985,38,hands-13.jpg,,BR,6,vpnl,2024-02-10_20h54.46.447,alternatingbabyloc,2023.2.2,60.00728932571065,
,,,,,,,,908.9502925479992,38,hands-14.jpg,,BR,6,vpnl,2024-02-10_20h54.46.447,alternatingbabyloc,2023.2.2,60.00728932571065,
,,,,,,,,909.4520533340001,38,hands-15.jpg,,BR,6,vpnl,2024-02-10_20h54.46.447,alternatingbabyloc,2023.2.2,60.00728932571065,
,,,,,,,,909.9501900220002,38,hands-16.jpg,,BR,6,vpnl,2024-02-10_20h54.46.447,alternatingbabyloc,2023.2.2,60.00728932571065,
,,,,,,,,910.4519196450001,39,faces-9.jpg,,BR,6,vpnl,2024-02-10_20h54.46.447,alternatingbabyloc,2023.2.2,60.00728932571065,
,,,,,,,,910.9505486529997,39,faces-10.jpg,,BR,6,vpnl,2024-02-10_20h54.46.447,alternatingbabyloc,2023.2.2,60.00728932571065,
,,,,,,,,911.4520129819994,39,faces-11.jpg,,BR,6,vpnl,2024-02-10_20h54.46.447,alternatingbabyloc,2023.2.2,60.00728932571065,
,,,,,,,,911.9503361999996,39,faces-12.jpg,,BR,6,vpnl,2024-02-10_20h54.46.447,alternatingbabyloc,2023.2.2,60.00728932571065,
,,,,,,,,912.4517170109993,39,faces-13.jpg,,BR,6,vpnl,2024-02-10_20h54.46.447,alternatingbabyloc,2023.2.2,60.00728932571065,
,,,,,,,,912.9502441139994,39,faces-14.jpg,,BR,6,vpnl,2024-02-10_20h54.46.447,alternatingbabyloc,2023.2.2,60.00728932571065,
,,,,,,,,913.4517699059998,39,faces-15.jpg,,BR,6,vpnl,2024-02-10_20h54.46.447,alternatingbabyloc,2023.2.2,60.00728932571065,
,,,,,,,,913.9505617399991,39,faces-16.jpg,,BR,6,vpnl,2024-02-10_20h54.46.447,alternatingbabyloc,2023.2.2,60.00728932571065,
,,,,,,,,914.4521660549999,40,cars-9.jpg,,BR,6,vpnl,2024-02-10_20h54.46.447,alternatingbabyloc,2023.2.2,60.00728932571065,
,,,,,,,,914.9502981389996,40,cars-10.jpg,,BR,6,vpnl,2024-02-10_20h54.46.447,alternatingbabyloc,2023.2.2,60.00728932571065,
,,,,,,,,915.4519364999996,40,cars-11.jpg,,BR,6,vpnl,2024-02-10_20h54.46.447,alternatingbabyloc,2023.2.2,60.00728932571065,
,,,,,,,,915.9559958569989,40,cars-12.jpg,,BR,6,vpnl,2024-02-10_20h54.46.447,alternatingbabyloc,2023.2.2,60.00728932571065,
,,,,,,,,916.4559759669992,40,cars-13.jpg,,BR,6,vpnl,2024-02-10_20h54.46.447,alternatingbabyloc,2023.2.2,60.00728932571065,
,,,,,,,,916.9624913629996,40,cars-14.jpg,,BR,6,vpnl,2024-02-10_20h54.46.447,alternatingbabyloc,2023.2.2,60.00728932571065,
,,,,,,,,917.4436424099986,40,cars-15.jpg,,BR,6,vpnl,2024-02-10_20h54.46.447,alternatingbabyloc,2023.2.2,60.00728932571065,
,,,,,,,,917.9770433939993,40,cars-16.jpg,,BR,6,vpnl,2024-02-10_20h54.46.447,alternatingbabyloc,2023.2.2,60.00728932571065,
,,,,,,,,918.4519743410001,41,scenes-9.jpg,,BR,6,vpnl,2024-02-10_20h54.46.447,alternatingbabyloc,2023.2.2,60.00728932571065,
,,,,,,,,918.9422148029989,41,scenes-10.jpg,,BR,6,vpnl,2024-02-10_20h54.46.447,alternatingbabyloc,2023.2.2,60.00728932571065,
,,,,,,,,919.4525087639995,41,scenes-11.jpg,,BR,6,vpnl,2024-02-10_20h54.46.447,alternatingbabyloc,2023.2.2,60.00728932571065,
,,,,,,,,919.950124826999,41,scenes-12.jpg,,BR,6,vpnl,2024-02-10_20h54.46.447,alternatingbabyloc,2023.2.2,60.00728932571065,
,,,,,,,,920.4518955179992,41,scenes-13.jpg,,BR,6,vpnl,2024-02-10_20h54.46.447,alternatingbabyloc,2023.2.2,60.00728932571065,
,,,,,,,,920.9506835439988,41,scenes-14.jpg,,BR,6,vpnl,2024-02-10_20h54.46.447,alternatingbabyloc,2023.2.2,60.00728932571065,
,,,,,,,,921.4521378729987,41,scenes-15.jpg,,BR,6,vpnl,2024-02-10_20h54.46.447,alternatingbabyloc,2023.2.2,60.00728932571065,
,,,,,,,,921.9499430649994,41,scenes-16.jpg,,BR,6,vpnl,2024-02-10_20h54.46.447,alternatingbabyloc,2023.2.2,60.00728932571065,
,,,,,,,,922.4520345559995,42,cars-17.jpg,,BR,6,vpnl,2024-02-10_20h54.46.447,alternatingbabyloc,2023.2.2,60.00728932571065,
,,,,,,,,922.9497763539985,42,cars-18.jpg,,BR,6,vpnl,2024-02-10_20h54.46.447,alternatingbabyloc,2023.2.2,60.00728932571065,
,,,,,,,,923.4518894699995,42,cars-19.jpg,,BR,6,vpnl,2024-02-10_20h54.46.447,alternatingbabyloc,2023.2.2,60.00728932571065,
,,,,,,,,923.9498621539988,42,cars-20.jpg,,BR,6,vpnl,2024-02-10_20h54.46.447,alternatingbabyloc,2023.2.2,60.00728932571065,
,,,,,,,,924.451988629,42,cars-21.jpg,,BR,6,vpnl,2024-02-10_20h54.46.447,alternatingbabyloc,2023.2.2,60.00728932571065,
,,,,,,,,924.9500569719985,42,cars-22.jpg,,BR,6,vpnl,2024-02-10_20h54.46.447,alternatingbabyloc,2023.2.2,60.00728932571065,
,,,,,,,,925.4519766029989,42,cars-23.jpg,,BR,6,vpnl,2024-02-10_20h54.46.447,alternatingbabyloc,2023.2.2,60.00728932571065,
,,,,,,,,925.9501105229992,42,cars-24.jpg,,BR,6,vpnl,2024-02-10_20h54.46.447,alternatingbabyloc,2023.2.2,60.00728932571065,
,,,,,,,,926.4516725349986,43,faces-17.jpg,,BR,6,vpnl,2024-02-10_20h54.46.447,alternatingbabyloc,2023.2.2,60.00728932571065,
,,,,,,,,926.950193445,43,faces-18.jpg,,BR,6,vpnl,2024-02-10_20h54.46.447,alternatingbabyloc,2023.2.2,60.00728932571065,
,,,,,,,,927.452401176999,43,faces-19.jpg,,BR,6,vpnl,2024-02-10_20h54.46.447,alternatingbabyloc,2023.2.2,60.00728932571065,
,,,,,,,,927.9500220869995,43,faces-20.jpg,,BR,6,vpnl,2024-02-10_20h54.46.447,alternatingbabyloc,2023.2.2,60.00728932571065,
,,,,,,,,928.4516359779991,43,faces-21.jpg,,BR,6,vpnl,2024-02-10_20h54.46.447,alternatingbabyloc,2023.2.2,60.00728932571065,
,,,,,,,,928.950247327999,43,faces-22.jpg,,BR,6,vpnl,2024-02-10_20h54.46.447,alternatingbabyloc,2023.2.2,60.00728932571065,
,,,,,,,,929.451986049,43,faces-23.jpg,,BR,6,vpnl,2024-02-10_20h54.46.447,alternatingbabyloc,2023.2.2,60.00728932571065,
,,,,,,,,929.9501270499986,43,faces-24.jpg,,BR,6,vpnl,2024-02-10_20h54.46.447,alternatingbabyloc,2023.2.2,60.00728932571065,
,,,,,,,,930.4517010999989,44,hands-17.jpg,,BR,6,vpnl,2024-02-10_20h54.46.447,alternatingbabyloc,2023.2.2,60.00728932571065,
,,,,,,,,930.9504772969995,44,hands-18.jpg,,BR,6,vpnl,2024-02-10_20h54.46.447,alternatingbabyloc,2023.2.2,60.00728932571065,
,,,,,,,,931.4526883639992,44,hands-19.jpg,,BR,6,vpnl,2024-02-10_20h54.46.447,alternatingbabyloc,2023.2.2,60.00728932571065,
,,,,,,,,931.9498426239988,44,hands-20.jpg,,BR,6,vpnl,2024-02-10_20h54.46.447,alternatingbabyloc,2023.2.2,60.00728932571065,
,,,,,,,,932.4514787899989,44,hands-21.jpg,,BR,6,vpnl,2024-02-10_20h54.46.447,alternatingbabyloc,2023.2.2,60.00728932571065,
,,,,,,,,932.9499431819986,44,hands-22.jpg,,BR,6,vpnl,2024-02-10_20h54.46.447,alternatingbabyloc,2023.2.2,60.00728932571065,
,,,,,,,,933.4520290519995,44,hands-23.jpg,,BR,6,vpnl,2024-02-10_20h54.46.447,alternatingbabyloc,2023.2.2,60.00728932571065,
,,,,,,,,933.9501476339992,44,hands-24.jpg,,BR,6,vpnl,2024-02-10_20h54.46.447,alternatingbabyloc,2023.2.2,60.00728932571065,
,,,,,,,,934.4513409209994,45,blank-25.jpg,,BR,6,vpnl,2024-02-10_20h54.46.447,alternatingbabyloc,2023.2.2,60.00728932571065,
,,,,,,,,934.9504808949987,45,blank-26.jpg,,BR,6,vpnl,2024-02-10_20h54.46.447,alternatingbabyloc,2023.2.2,60.00728932571065,
,,,,,,,,935.4520431879992,45,blank-27.jpg,,BR,6,vpnl,2024-02-10_20h54.46.447,alternatingbabyloc,2023.2.2,60.00728932571065,
,,,,,,,,935.9503070859992,45,blank-28.jpg,,BR,6,vpnl,2024-02-10_20h54.46.447,alternatingbabyloc,2023.2.2,60.00728932571065,
,,,,,,,,936.4515637730001,45,blank-29.jpg,,BR,6,vpnl,2024-02-10_20h54.46.447,alternatingbabyloc,2023.2.2,60.00728932571065,
,,,,,,,,936.9501119269989,45,blank-30.jpg,,BR,6,vpnl,2024-02-10_20h54.46.447,alternatingbabyloc,2023.2.2,60.00728932571065,
,,,,,,,,937.4525704070002,45,blank-31.jpg,,BR,6,vpnl,2024-02-10_20h54.46.447,alternatingbabyloc,2023.2.2,60.00728932571065,
,,,,,,,,937.9499316429992,45,blank-32.jpg,,BR,6,vpnl,2024-02-10_20h54.46.447,alternatingbabyloc,2023.2.2,60.00728932571065,
,,,,,,,,938.4513170329992,46,scenes-17.jpg,,BR,6,vpnl,2024-02-10_20h54.46.447,alternatingbabyloc,2023.2.2,60.00728932571065,
,,,,,,,,938.950000982999,46,scenes-18.jpg,,BR,6,vpnl,2024-02-10_20h54.46.447,alternatingbabyloc,2023.2.2,60.00728932571065,
,,,,,,,,939.451723573,46,scenes-19.jpg,,BR,6,vpnl,2024-02-10_20h54.46.447,alternatingbabyloc,2023.2.2,60.00728932571065,
,,,,,,,,939.9496092379995,46,scenes-20.jpg,,BR,6,vpnl,2024-02-10_20h54.46.447,alternatingbabyloc,2023.2.2,60.00728932571065,
,,,,,,,,940.4515643139985,46,scenes-21.jpg,,BR,6,vpnl,2024-02-10_20h54.46.447,alternatingbabyloc,2023.2.2,60.00728932571065,
,,,,,,,,940.9496076039995,46,scenes-22.jpg,,BR,6,vpnl,2024-02-10_20h54.46.447,alternatingbabyloc,2023.2.2,60.00728932571065,
,,,,,,,,941.4520653119998,46,scenes-23.jpg,,BR,6,vpnl,2024-02-10_20h54.46.447,alternatingbabyloc,2023.2.2,60.00728932571065,
,,,,,,,,941.9500509849986,46,scenes-24.jpg,,BR,6,vpnl,2024-02-10_20h54.46.447,alternatingbabyloc,2023.2.2,60.00728932571065,
,,,,,,,,942.4517091239995,47,blank-33.jpg,,BR,6,vpnl,2024-02-10_20h54.46.447,alternatingbabyloc,2023.2.2,60.00728932571065,
,,,,,,,,942.949691165999,47,blank-34.jpg,,BR,6,vpnl,2024-02-10_20h54.46.447,alternatingbabyloc,2023.2.2,60.00728932571065,
,,,,,,,,943.4515107049992,47,blank-35.jpg,,BR,6,vpnl,2024-02-10_20h54.46.447,alternatingbabyloc,2023.2.2,60.00728932571065,
,,,,,,,,943.9497518859989,47,blank-36.jpg,,BR,6,vpnl,2024-02-10_20h54.46.447,alternatingbabyloc,2023.2.2,60.00728932571065,
,,,,,,,,944.4515745389999,47,blank-37.jpg,,BR,6,vpnl,2024-02-10_20h54.46.447,alternatingbabyloc,2023.2.2,60.00728932571065,
,,,,,,,,944.9495593020001,47,blank-38.jpg,,BR,6,vpnl,2024-02-10_20h54.46.447,alternatingbabyloc,2023.2.2,60.00728932571065,
,,,,,,,,945.4518458269995,47,blank-39.jpg,,BR,6,vpnl,2024-02-10_20h54.46.447,alternatingbabyloc,2023.2.2,60.00728932571065,
,,,,,,,,945.9495982289991,47,blank-40.jpg,,BR,6,vpnl,2024-02-10_20h54.46.447,alternatingbabyloc,2023.2.2,60.00728932571065,
,,,,,,,,946.4518568149997,48,faces-25.jpg,,BR,6,vpnl,2024-02-10_20h54.46.447,alternatingbabyloc,2023.2.2,60.00728932571065,
,,,,,,,,946.9499446559985,48,faces-26.jpg,,BR,6,vpnl,2024-02-10_20h54.46.447,alternatingbabyloc,2023.2.2,60.00728932571065,
,,,,,,,,947.4516148669991,48,faces-27.jpg,,BR,6,vpnl,2024-02-10_20h54.46.447,alternatingbabyloc,2023.2.2,60.00728932571065,
,,,,,,,,947.9494369489985,48,faces-28.jpg,,BR,6,vpnl,2024-02-10_20h54.46.447,alternatingbabyloc,2023.2.2,60.00728932571065,
,,,,,,,,948.4513637089985,48,faces-29.jpg,,BR,6,vpnl,2024-02-10_20h54.46.447,alternatingbabyloc,2023.2.2,60.00728932571065,
,,,,,,,,948.949622094,48,faces-30.jpg,,BR,6,vpnl,2024-02-10_20h54.46.447,alternatingbabyloc,2023.2.2,60.00728932571065,
,,,,,,,,949.4525742179994,48,faces-31.jpg,,BR,6,vpnl,2024-02-10_20h54.46.447,alternatingbabyloc,2023.2.2,60.00728932571065,
,,,,,,,,949.9496124069992,48,faces-32.jpg,,BR,6,vpnl,2024-02-10_20h54.46.447,alternatingbabyloc,2023.2.2,60.00728932571065,
,,,,,,,,950.4514052369996,49,cars-25.jpg,,BR,6,vpnl,2024-02-10_20h54.46.447,alternatingbabyloc,2023.2.2,60.00728932571065,
,,,,,,,,950.9496739689985,49,cars-26.jpg,,BR,6,vpnl,2024-02-10_20h54.46.447,alternatingbabyloc,2023.2.2,60.00728932571065,
,,,,,,,,951.4512344119994,49,cars-27.jpg,,BR,6,vpnl,2024-02-10_20h54.46.447,alternatingbabyloc,2023.2.2,60.00728932571065,
,,,,,,,,951.9497360549994,49,cars-28.jpg,,BR,6,vpnl,2024-02-10_20h54.46.447,alternatingbabyloc,2023.2.2,60.00728932571065,
,,,,,,,,952.4513360809997,49,cars-29.jpg,,BR,6,vpnl,2024-02-10_20h54.46.447,alternatingbabyloc,2023.2.2,60.00728932571065,
,,,,,,,,952.9494377629999,49,cars-30.jpg,,BR,6,vpnl,2024-02-10_20h54.46.447,alternatingbabyloc,2023.2.2,60.00728932571065,
,,,,,,,,953.4516791449987,49,cars-31.jpg,,BR,6,vpnl,2024-02-10_20h54.46.447,alternatingbabyloc,2023.2.2,60.00728932571065,
,,,,,,,,953.9493480049987,49,cars-32.jpg,,BR,6,vpnl,2024-02-10_20h54.46.447,alternatingbabyloc,2023.2.2,60.00728932571065,
,,,,,,,,954.4510835539986,50,hands-25.jpg,,BR,6,vpnl,2024-02-10_20h54.46.447,alternatingbabyloc,2023.2.2,60.00728932571065,
,,,,,,,,954.9497890080002,50,hands-26.jpg,,BR,6,vpnl,2024-02-10_20h54.46.447,alternatingbabyloc,2023.2.2,60.00728932571065,
,,,,,,,,955.451437108999,50,hands-27.jpg,,BR,6,vpnl,2024-02-10_20h54.46.447,alternatingbabyloc,2023.2.2,60.00728932571065,
,,,,,,,,955.9495292439988,50,hands-28.jpg,,BR,6,vpnl,2024-02-10_20h54.46.447,alternatingbabyloc,2023.2.2,60.00728932571065,
,,,,,,,,956.4514831369997,50,hands-29.jpg,,BR,6,vpnl,2024-02-10_20h54.46.447,alternatingbabyloc,2023.2.2,60.00728932571065,
,,,,,,,,956.9494233119985,50,hands-30.jpg,,BR,6,vpnl,2024-02-10_20h54.46.447,alternatingbabyloc,2023.2.2,60.00728932571065,
,,,,,,,,957.4518914330001,50,hands-31.jpg,,BR,6,vpnl,2024-02-10_20h54.46.447,alternatingbabyloc,2023.2.2,60.00728932571065,
,,,,,,,,957.949375102,50,hands-32.jpg,,BR,6,vpnl,2024-02-10_20h54.46.447,alternatingbabyloc,2023.2.2,60.00728932571065,
,,,,,,,,958.4516431299999,51,scenes-25.jpg,,BR,6,vpnl,2024-02-10_20h54.46.447,alternatingbabyloc,2023.2.2,60.00728932571065,
,,,,,,,,958.9497125839989,51,scenes-26.jpg,,BR,6,vpnl,2024-02-10_20h54.46.447,alternatingbabyloc,2023.2.2,60.00728932571065,
,,,,,,,,959.4511897069988,51,scenes-27.jpg,,BR,6,vpnl,2024-02-10_20h54.46.447,alternatingbabyloc,2023.2.2,60.00728932571065,
,,,,,,,,959.9493786289986,51,scenes-28.jpg,,BR,6,vpnl,2024-02-10_20h54.46.447,alternatingbabyloc,2023.2.2,60.00728932571065,
,,,,,,,,960.4513091529989,51,scenes-29.jpg,,BR,6,vpnl,2024-02-10_20h54.46.447,alternatingbabyloc,2023.2.2,60.00728932571065,
,,,,,,,,960.9492232989996,51,scenes-30.jpg,,BR,6,vpnl,2024-02-10_20h54.46.447,alternatingbabyloc,2023.2.2,60.00728932571065,
,,,,,,,,961.4514924879986,51,scenes-31.jpg,,BR,6,vpnl,2024-02-10_20h54.46.447,alternatingbabyloc,2023.2.2,60.00728932571065,
,,,,,,,,961.9493769860001,51,scenes-32.jpg,,BR,6,vpnl,2024-02-10_20h54.46.447,alternatingbabyloc,2023.2.2,60.00728932571065,
,,,,,,,,962.4512387750001,52,cars-33.jpg,,BR,6,vpnl,2024-02-10_20h54.46.447,alternatingbabyloc,2023.2.2,60.00728932571065,
,,,,,,,,962.949770407,52,cars-34.jpg,,BR,6,vpnl,2024-02-10_20h54.46.447,alternatingbabyloc,2023.2.2,60.00728932571065,
,,,,,,,,963.4512640279991,52,cars-35.jpg,,BR,6,vpnl,2024-02-10_20h54.46.447,alternatingbabyloc,2023.2.2,60.00728932571065,
,,,,,,,,963.9491625680002,52,cars-36.jpg,,BR,6,vpnl,2024-02-10_20h54.46.447,alternatingbabyloc,2023.2.2,60.00728932571065,
,,,,,,,,964.451594447999,52,cars-37.jpg,,BR,6,vpnl,2024-02-10_20h54.46.447,alternatingbabyloc,2023.2.2,60.00728932571065,
,,,,,,,,964.9492503009988,52,cars-38.jpg,,BR,6,vpnl,2024-02-10_20h54.46.447,alternatingbabyloc,2023.2.2,60.00728932571065,
,,,,,,,,965.4510647669995,52,cars-39.jpg,,BR,6,vpnl,2024-02-10_20h54.46.447,alternatingbabyloc,2023.2.2,60.00728932571065,
,,,,,,,,965.9495908739991,52,cars-40.jpg,,BR,6,vpnl,2024-02-10_20h54.46.447,alternatingbabyloc,2023.2.2,60.00728932571065,
,,,,,,,,966.4508845189994,53,faces-33.jpg,,BR,6,vpnl,2024-02-10_20h54.46.447,alternatingbabyloc,2023.2.2,60.00728932571065,
,,,,,,,,966.9492727209999,53,faces-34.jpg,,BR,6,vpnl,2024-02-10_20h54.46.447,alternatingbabyloc,2023.2.2,60.00728932571065,
,,,,,,,,967.4511581199986,53,faces-35.jpg,,BR,6,vpnl,2024-02-10_20h54.46.447,alternatingbabyloc,2023.2.2,60.00728932571065,
,,,,,,,,967.9492875300002,53,faces-36.jpg,,BR,6,vpnl,2024-02-10_20h54.46.447,alternatingbabyloc,2023.2.2,60.00728932571065,
,,,,,,,,968.4511161129994,53,faces-37.jpg,,BR,6,vpnl,2024-02-10_20h54.46.447,alternatingbabyloc,2023.2.2,60.00728932571065,
,,,,,,,,968.9491526499987,53,faces-38.jpg,,BR,6,vpnl,2024-02-10_20h54.46.447,alternatingbabyloc,2023.2.2,60.00728932571065,
,,,,,,,,969.4514267199993,53,faces-39.jpg,,BR,6,vpnl,2024-02-10_20h54.46.447,alternatingbabyloc,2023.2.2,60.00728932571065,
,,,,,,,,969.9492124459994,53,faces-40.jpg,,BR,6,vpnl,2024-02-10_20h54.46.447,alternatingbabyloc,2023.2.2,60.00728932571065,
,,,,,,,,970.4514184269992,54,blank-41.jpg,,BR,6,vpnl,2024-02-10_20h54.46.447,alternatingbabyloc,2023.2.2,60.00728932571065,
,,,,,,,,970.9494300309998,54,blank-42.jpg,,BR,6,vpnl,2024-02-10_20h54.46.447,alternatingbabyloc,2023.2.2,60.00728932571065,
,,,,,,,,971.4512727389993,54,blank-43.jpg,,BR,6,vpnl,2024-02-10_20h54.46.447,alternatingbabyloc,2023.2.2,60.00728932571065,
,,,,,,,,971.9490608169999,54,blank-44.jpg,,BR,6,vpnl,2024-02-10_20h54.46.447,alternatingbabyloc,2023.2.2,60.00728932571065,
,,,,,,,,972.4510907959993,54,blank-45.jpg,,BR,6,vpnl,2024-02-10_20h54.46.447,alternatingbabyloc,2023.2.2,60.00728932571065,
,,,,,,,,972.9489550019989,54,blank-46.jpg,,BR,6,vpnl,2024-02-10_20h54.46.447,alternatingbabyloc,2023.2.2,60.00728932571065,
,,,,,,,,973.4511098209987,54,blank-47.jpg,,BR,6,vpnl,2024-02-10_20h54.46.447,alternatingbabyloc,2023.2.2,60.00728932571065,
,,,,,,,,973.9496771319991,54,blank-48.jpg,,BR,6,vpnl,2024-02-10_20h54.46.447,alternatingbabyloc,2023.2.2,60.00728932571065,
,,,,,,,,974.4508135979995,55,scenes-33.jpg,,BR,6,vpnl,2024-02-10_20h54.46.447,alternatingbabyloc,2023.2.2,60.00728932571065,
,,,,,,,,974.9489894099988,55,scenes-34.jpg,,BR,6,vpnl,2024-02-10_20h54.46.447,alternatingbabyloc,2023.2.2,60.00728932571065,
,,,,,,,,975.4511718429985,55,scenes-35.jpg,,BR,6,vpnl,2024-02-10_20h54.46.447,alternatingbabyloc,2023.2.2,60.00728932571065,
,,,,,,,,975.9490570419985,55,scenes-36.jpg,,BR,6,vpnl,2024-02-10_20h54.46.447,alternatingbabyloc,2023.2.2,60.00728932571065,
,,,,,,,,976.4507925339985,55,scenes-37.jpg,,BR,6,vpnl,2024-02-10_20h54.46.447,alternatingbabyloc,2023.2.2,60.00728932571065,
,,,,,,,,976.9493205679992,55,scenes-38.jpg,,BR,6,vpnl,2024-02-10_20h54.46.447,alternatingbabyloc,2023.2.2,60.00728932571065,
,,,,,,,,977.4515417080001,55,scenes-39.jpg,,BR,6,vpnl,2024-02-10_20h54.46.447,alternatingbabyloc,2023.2.2,60.00728932571065,
,,,,,,,,977.9491973789991,55,scenes-40.jpg,,BR,6,vpnl,2024-02-10_20h54.46.447,alternatingbabyloc,2023.2.2,60.00728932571065,
,,,,,,,,978.4508625090002,56,hands-33.jpg,,BR,6,vpnl,2024-02-10_20h54.46.447,alternatingbabyloc,2023.2.2,60.00728932571065,
,,,,,,,,978.9490762839996,56,hands-34.jpg,,BR,6,vpnl,2024-02-10_20h54.46.447,alternatingbabyloc,2023.2.2,60.00728932571065,
,,,,,,,,979.4513192899994,56,hands-35.jpg,,BR,6,vpnl,2024-02-10_20h54.46.447,alternatingbabyloc,2023.2.2,60.00728932571065,
,,,,,,,,979.948918656999,56,hands-36.jpg,,BR,6,vpnl,2024-02-10_20h54.46.447,alternatingbabyloc,2023.2.2,60.00728932571065,
,,,,,,,,980.4511903479997,56,hands-37.jpg,,BR,6,vpnl,2024-02-10_20h54.46.447,alternatingbabyloc,2023.2.2,60.00728932571065,
,,,,,,,,980.9492205609986,56,hands-38.jpg,,BR,6,vpnl,2024-02-10_20h54.46.447,alternatingbabyloc,2023.2.2,60.00728932571065,
,,,,,,,,981.4507958779996,56,hands-39.jpg,,BR,6,vpnl,2024-02-10_20h54.46.447,alternatingbabyloc,2023.2.2,60.00728932571065,
,,,,,,,,981.9493671339987,56,hands-40.jpg,,BR,6,vpnl,2024-02-10_20h54.46.447,alternatingbabyloc,2023.2.2,60.00728932571065,
,,,,,,,,982.4507715319996,57,scenes-41.jpg,,BR,6,vpnl,2024-02-10_20h54.46.447,alternatingbabyloc,2023.2.2,60.00728932571065,
,,,,,,,,982.9488042159992,57,scenes-42.jpg,,BR,6,vpnl,2024-02-10_20h54.46.447,alternatingbabyloc,2023.2.2,60.00728932571065,
,,,,,,,,983.4511807250001,57,scenes-43.jpg,,BR,6,vpnl,2024-02-10_20h54.46.447,alternatingbabyloc,2023.2.2,60.00728932571065,
,,,,,,,,983.9487925529993,57,scenes-44.jpg,,BR,6,vpnl,2024-02-10_20h54.46.447,alternatingbabyloc,2023.2.2,60.00728932571065,
,,,,,,,,984.4507838059999,57,scenes-45.jpg,,BR,6,vpnl,2024-02-10_20h54.46.447,alternatingbabyloc,2023.2.2,60.00728932571065,
,,,,,,,,984.9492463419992,57,scenes-46.jpg,,BR,6,vpnl,2024-02-10_20h54.46.447,alternatingbabyloc,2023.2.2,60.00728932571065,
,,,,,,,,985.4508204199992,57,scenes-47.jpg,,BR,6,vpnl,2024-02-10_20h54.46.447,alternatingbabyloc,2023.2.2,60.00728932571065,
,,,,,,,,985.9490087979993,57,scenes-48.jpg,,BR,6,vpnl,2024-02-10_20h54.46.447,alternatingbabyloc,2023.2.2,60.00728932571065,
,,,,,,,,986.4508013689992,58,cars-41.jpg,,BR,6,vpnl,2024-02-10_20h54.46.447,alternatingbabyloc,2023.2.2,60.00728932571065,
,,,,,,,,986.9487980569993,58,cars-42.jpg,,BR,6,vpnl,2024-02-10_20h54.46.447,alternatingbabyloc,2023.2.2,60.00728932571065,
,,,,,,,,987.4517919889986,58,cars-43.jpg,,BR,6,vpnl,2024-02-10_20h54.46.447,alternatingbabyloc,2023.2.2,60.00728932571065,
,,,,,,,,987.9492519239993,58,cars-44.jpg,,BR,6,vpnl,2024-02-10_20h54.46.447,alternatingbabyloc,2023.2.2,60.00728932571065,
,,,,,,,,988.4503472389988,58,cars-45.jpg,,BR,6,vpnl,2024-02-10_20h54.46.447,alternatingbabyloc,2023.2.2,60.00728932571065,
,,,,,,,,988.9489120589988,58,cars-46.jpg,,BR,6,vpnl,2024-02-10_20h54.46.447,alternatingbabyloc,2023.2.2,60.00728932571065,
,,,,,,,,989.4507747049993,58,cars-47.jpg,,BR,6,vpnl,2024-02-10_20h54.46.447,alternatingbabyloc,2023.2.2,60.00728932571065,
,,,,,,,,989.9485792449996,58,cars-48.jpg,,BR,6,vpnl,2024-02-10_20h54.46.447,alternatingbabyloc,2023.2.2,60.00728932571065,
,,,,,,,,990.4504699739991,59,hands-41.jpg,,BR,6,vpnl,2024-02-10_20h54.46.447,alternatingbabyloc,2023.2.2,60.00728932571065,
,,,,,,,,990.9489236469999,59,hands-42.jpg,,BR,6,vpnl,2024-02-10_20h54.46.447,alternatingbabyloc,2023.2.2,60.00728932571065,
,,,,,,,,991.4513513739985,59,hands-43.jpg,,BR,6,vpnl,2024-02-10_20h54.46.447,alternatingbabyloc,2023.2.2,60.00728932571065,
,,,,,,,,991.9488186789986,59,hands-44.jpg,,BR,6,vpnl,2024-02-10_20h54.46.447,alternatingbabyloc,2023.2.2,60.00728932571065,
,,,,,,,,992.4503500229985,59,hands-45.jpg,,BR,6,vpnl,2024-02-10_20h54.46.447,alternatingbabyloc,2023.2.2,60.00728932571065,
,,,,,,,,992.9489809770002,59,hands-46.jpg,,BR,6,vpnl,2024-02-10_20h54.46.447,alternatingbabyloc,2023.2.2,60.00728932571065,
,,,,,,,,993.4511664269994,59,hands-47.jpg,,BR,6,vpnl,2024-02-10_20h54.46.447,alternatingbabyloc,2023.2.2,60.00728932571065,
,,,,,,,,993.9485838609999,59,hands-48.jpg,,BR,6,vpnl,2024-02-10_20h54.46.447,alternatingbabyloc,2023.2.2,60.00728932571065,
,,,,,,,,994.4501896559996,60,faces-41.jpg,,BR,6,vpnl,2024-02-10_20h54.46.447,alternatingbabyloc,2023.2.2,60.00728932571065,
,,,,,,,,994.948856994999,60,faces-42.jpg,,BR,6,vpnl,2024-02-10_20h54.46.447,alternatingbabyloc,2023.2.2,60.00728932571065,
,,,,,,,,995.4504920179988,60,faces-43.jpg,,BR,6,vpnl,2024-02-10_20h54.46.447,alternatingbabyloc,2023.2.2,60.00728932571065,
,,,,,,,,995.9487318709998,60,faces-44.jpg,,BR,6,vpnl,2024-02-10_20h54.46.447,alternatingbabyloc,2023.2.2,60.00728932571065,
,,,,,,,,996.4505459609991,60,faces-45.jpg,,BR,6,vpnl,2024-02-10_20h54.46.447,alternatingbabyloc,2023.2.2,60.00728932571065,
,,,,,,,,996.9485374819997,60,faces-46.jpg,,BR,6,vpnl,2024-02-10_20h54.46.447,alternatingbabyloc,2023.2.2,60.00728932571065,
,,,,,,,,997.4508774400001,60,faces-47.jpg,,BR,6,vpnl,2024-02-10_20h54.46.447,alternatingbabyloc,2023.2.2,60.00728932571065,
,,,,,,,,997.9486970519993,60,faces-48.jpg,,BR,6,vpnl,2024-02-10_20h54.46.447,alternatingbabyloc,2023.2.2,60.00728932571065,
,,,,,,,,998.4502189059986,61,blank-49.jpg,,BR,6,vpnl,2024-02-10_20h54.46.447,alternatingbabyloc,2023.2.2,60.00728932571065,
,,,,,,,,998.9488117389992,61,blank-50.jpg,,BR,6,vpnl,2024-02-10_20h54.46.447,alternatingbabyloc,2023.2.2,60.00728932571065,
,,,,,,,,999.4508739759985,61,blank-51.jpg,,BR,6,vpnl,2024-02-10_20h54.46.447,alternatingbabyloc,2023.2.2,60.00728932571065,
,,,,,,,,999.9484464519992,61,blank-52.jpg,,BR,6,vpnl,2024-02-10_20h54.46.447,alternatingbabyloc,2023.2.2,60.00728932571065,
,,,,,,,,1000.450315095999,61,blank-53.jpg,,BR,6,vpnl,2024-02-10_20h54.46.447,alternatingbabyloc,2023.2.2,60.00728932571065,
,,,,,,,,1000.9484510169987,61,blank-54.jpg,,BR,6,vpnl,2024-02-10_20h54.46.447,alternatingbabyloc,2023.2.2,60.00728932571065,
,,,,,,,,1001.4515390889992,61,blank-55.jpg,,BR,6,vpnl,2024-02-10_20h54.46.447,alternatingbabyloc,2023.2.2,60.00728932571065,
,,,,,,,,1001.949109797999,61,blank-56.jpg,,BR,6,vpnl,2024-02-10_20h54.46.447,alternatingbabyloc,2023.2.2,60.00728932571065,
,,,,,,,,1002.4501558189986,62,blank-57.jpg,,BR,6,vpnl,2024-02-10_20h54.46.447,alternatingbabyloc,2023.2.2,60.00728932571065,
,,,,,,,,1002.9486955649991,62,blank-58.jpg,,BR,6,vpnl,2024-02-10_20h54.46.447,alternatingbabyloc,2023.2.2,60.00728932571065,
,,,,,,,,1003.4508688899987,62,blank-59.jpg,,BR,6,vpnl,2024-02-10_20h54.46.447,alternatingbabyloc,2023.2.2,60.00728932571065,
,,,,,,,,1003.9484289430002,62,blank-60.jpg,,BR,6,vpnl,2024-02-10_20h54.46.447,alternatingbabyloc,2023.2.2,60.00728932571065,
,,,,,,,,1004.4502528789999,62,blank-61.jpg,,BR,6,vpnl,2024-02-10_20h54.46.447,alternatingbabyloc,2023.2.2,60.00728932571065,
,,,,,,,,1004.9489643929992,62,blank-62.jpg,,BR,6,vpnl,2024-02-10_20h54.46.447,alternatingbabyloc,2023.2.2,60.00728932571065,
,,,,,,,,1005.4504323099991,62,blank-63.jpg,,BR,6,vpnl,2024-02-10_20h54.46.447,alternatingbabyloc,2023.2.2,60.00728932571065,
,,,,,,,,1005.9483078419998,62,blank-64.jpg,,BR,6,vpnl,2024-02-10_20h54.46.447,alternatingbabyloc,2023.2.2,60.00728932571065,
