thisRow.t,notes,waiting_for_trigger_text.started,trigger.started,trigger.keys,trigger.rt,countdown.started,trial.stopped,stimuli.started,condition,stim_name,participant,run,user,date,expName,psychopyVersion,frameRate,
,,322.3618376079994,322.3618376079994,t,41.3575297970001,,,,,,BR,6,vpnl,2024-02-10_20h54.46.447,alternatingbabyloc,2023.2.2,60.00728932571065,
,,,,,,363.75267519799854,47.403905269999086,369.8164405769985,1,blank.mp4,BR,6,vpnl,2024-02-10_20h54.46.447,alternatingbabyloc,2023.2.2,60.00728932571065,
,,,,,,,,373.9010991619998,2,sky_2.mp4,BR,6,vpnl,2024-02-10_20h54.46.447,alternatingbabyloc,2023.2.2,60.00728932571065,
,,,,,,,,377.90797781699985,3,IK_hands_1.mp4,BR,6,vpnl,2024-02-10_20h54.46.447,alternatingbabyloc,2023.2.2,60.00728932571065,
,,,,,,,,381.9088734979996,4,blank.mp4,BR,6,vpnl,2024-02-10_20h54.46.447,alternatingbabyloc,2023.2.2,60.00728932571065,
,,,,,,,,385.9393394660001,5,SE_faces_1.mp4,BR,6,vpnl,2024-02-10_20h54.46.447,alternatingbabyloc,2023.2.2,60.00728932571065,
,,,,,,,,389.90831641099976,6,car5_2.mp4,BR,6,vpnl,2024-02-10_20h54.46.447,alternatingbabyloc,2023.2.2,60.00728932571065,
,,,,,,,,393.9247020219991,7,JC_hands_2.mp4,BR,6,vpnl,2024-02-10_20h54.46.447,alternatingbabyloc,2023.2.2,60.00728932571065,
,,,,,,,,397.91566519799926,8,dumptruck5_1.mp4,BR,6,vpnl,2024-02-10_20h54.46.447,alternatingbabyloc,2023.2.2,60.00728932571065,
,,,,,,,,401.9209989579995,9,snow_1.mp4,BR,6,vpnl,2024-02-10_20h54.46.447,alternatingbabyloc,2023.2.2,60.00728932571065,
,,,,,,,,405.9135783849997,10,BS_faces_2.mp4,BR,6,vpnl,2024-02-10_20h54.46.447,alternatingbabyloc,2023.2.2,60.00728932571065,
,,,,,,,,409.90199000199937,11,blank.mp4,BR,6,vpnl,2024-02-10_20h54.46.447,alternatingbabyloc,2023.2.2,60.00728932571065,
,,,,,,,,413.91069939099907,12,AX_hands_3.mp4,BR,6,vpnl,2024-02-10_20h54.46.447,alternatingbabyloc,2023.2.2,60.00728932571065,
,,,,,,,,417.90195648499866,13,dumptruck3_1.mp4,BR,6,vpnl,2024-02-10_20h54.46.447,alternatingbabyloc,2023.2.2,60.00728932571065,
,,,,,,,,421.9425827569994,14,shore_1.mp4,BR,6,vpnl,2024-02-10_20h54.46.447,alternatingbabyloc,2023.2.2,60.00728932571065,
,,,,,,,,425.92538397599856,15,KW_faces_2.mp4,BR,6,vpnl,2024-02-10_20h54.46.447,alternatingbabyloc,2023.2.2,60.00728932571065,
,,,,,,,,429.9136311309994,16,blank.mp4,BR,6,vpnl,2024-02-10_20h54.46.447,alternatingbabyloc,2023.2.2,60.00728932571065,
,,,,,,,,433.8929614150002,17,JY_hands_3.mp4,BR,6,vpnl,2024-02-10_20h54.46.447,alternatingbabyloc,2023.2.2,60.00728932571065,
,,,,,,,,437.9148909029991,18,JO_faces_2.mp4,BR,6,vpnl,2024-02-10_20h54.46.447,alternatingbabyloc,2023.2.2,60.00728932571065,
,,,,,,,,441.9270397519995,19,bigwaterfall_2.mp4,BR,6,vpnl,2024-02-10_20h54.46.447,alternatingbabyloc,2023.2.2,60.00728932571065,
,,,,,,,,445.89522996599953,20,blackexcavator_6.mp4,BR,6,vpnl,2024-02-10_20h54.46.447,alternatingbabyloc,2023.2.2,60.00728932571065,
,,,,,,,,449.92738152899983,21,blank.mp4,BR,6,vpnl,2024-02-10_20h54.46.447,alternatingbabyloc,2023.2.2,60.00728932571065,
,,,,,,,,453.92884323399994,22,blueexcavator_11.mp4,BR,6,vpnl,2024-02-10_20h54.46.447,alternatingbabyloc,2023.2.2,60.00728932571065,
,,,,,,,,457.94127141399986,23,volcano_6.mp4,BR,6,vpnl,2024-02-10_20h54.46.447,alternatingbabyloc,2023.2.2,60.00728932571065,
,,,,,,,,461.92803965799976,24,JO_hands_1.mp4,BR,6,vpnl,2024-02-10_20h54.46.447,alternatingbabyloc,2023.2.2,60.00728932571065,
,,,,,,,,465.94191276499987,25,blank.mp4,BR,6,vpnl,2024-02-10_20h54.46.447,alternatingbabyloc,2023.2.2,60.00728932571065,
,,,,,,,,469.92416437300017,26,DO_faces_4.mp4,BR,6,vpnl,2024-02-10_20h54.46.447,alternatingbabyloc,2023.2.2,60.00728932571065,
,,,,,,,,473.94387466699845,27,yellowexcavator_3.mp4,BR,6,vpnl,2024-02-10_20h54.46.447,alternatingbabyloc,2023.2.2,60.00728932571065,
,,,,,,,,477.9569375760002,28,JY_faces_1.mp4,BR,6,vpnl,2024-02-10_20h54.46.447,alternatingbabyloc,2023.2.2,60.00728932571065,
,,,,,,,,481.92982719499923,29,KP_hands_2.mp4,BR,6,vpnl,2024-02-10_20h54.46.447,alternatingbabyloc,2023.2.2,60.00728932571065,
,,,,,,,,485.91921025400006,30,blank.mp4,BR,6,vpnl,2024-02-10_20h54.46.447,alternatingbabyloc,2023.2.2,60.00728932571065,
,,,,,,,,489.90704793199984,31,trees_2.mp4,BR,6,vpnl,2024-02-10_20h54.46.447,alternatingbabyloc,2023.2.2,60.00728932571065,
,,,,,,,,493.9408164609995,32,blank.mp4,BR,6,vpnl,2024-02-10_20h54.46.447,alternatingbabyloc,2023.2.2,60.00728932571065,
,,,,,,,,497.9527055039998,33,BP_hands_2.mp4,BR,6,vpnl,2024-02-10_20h54.46.447,alternatingbabyloc,2023.2.2,60.00728932571065,
,,,,,,,,501.9126589819989,34,smallwaterfall_1.mp4,BR,6,vpnl,2024-02-10_20h54.46.447,alternatingbabyloc,2023.2.2,60.00728932571065,
,,,,,,,,505.9248150909989,35,HO_faces_3.mp4,BR,6,vpnl,2024-02-10_20h54.46.447,alternatingbabyloc,2023.2.2,60.00728932571065,
,,,,,,,,509.9195622309999,36,dumptruck9_1.mp4,BR,6,vpnl,2024-02-10_20h54.46.447,alternatingbabyloc,2023.2.2,60.00728932571065,
,,,,,,,,513.9058954989996,37,EC_hands_4.mp4,BR,6,vpnl,2024-02-10_20h54.46.447,alternatingbabyloc,2023.2.2,60.00728932571065,
,,,,,,,,517.9212218329994,38,JC_faces_1.mp4,BR,6,vpnl,2024-02-10_20h54.46.447,alternatingbabyloc,2023.2.2,60.00728932571065,
,,,,,,,,521.9182040389987,39,waterfallpond_2.mp4,BR,6,vpnl,2024-02-10_20h54.46.447,alternatingbabyloc,2023.2.2,60.00728932571065,
,,,,,,,,525.9520947450001,40,car6_1.mp4,BR,6,vpnl,2024-02-10_20h54.46.447,alternatingbabyloc,2023.2.2,60.00728932571065,
,,,,,,,,529.9482165829995,41,blank.mp4,BR,6,vpnl,2024-02-10_20h54.46.447,alternatingbabyloc,2023.2.2,60.00728932571065,
,,,,,,,,533.9474671249991,42,car8_1.mp4,BR,6,vpnl,2024-02-10_20h54.46.447,alternatingbabyloc,2023.2.2,60.00728932571065,
,,,,,,,,537.9116723369989,43,DO_hands_1.mp4,BR,6,vpnl,2024-02-10_20h54.46.447,alternatingbabyloc,2023.2.2,60.00728932571065,
,,,,,,,,541.9713775269993,44,grass_3.mp4,BR,6,vpnl,2024-02-10_20h54.46.447,alternatingbabyloc,2023.2.2,60.00728932571065,
,,,,,,,,545.9052347469988,45,blank.mp4,BR,6,vpnl,2024-02-10_20h54.46.447,alternatingbabyloc,2023.2.2,60.00728932571065,
,,,,,,,,549.9858491189989,46,SS_faces_2.mp4,BR,6,vpnl,2024-02-10_20h54.46.447,alternatingbabyloc,2023.2.2,60.00728932571065,
,,,,,,,,553.9426702319997,47,KW_hands_2.mp4,BR,6,vpnl,2024-02-10_20h54.46.447,alternatingbabyloc,2023.2.2,60.00728932571065,
,,,,,,,,557.9023550849997,48,river_2.mp4,BR,6,vpnl,2024-02-10_20h54.46.447,alternatingbabyloc,2023.2.2,60.00728932571065,
,,,,,,,,561.9347670119987,49,rccar_1.mp4,BR,6,vpnl,2024-02-10_20h54.46.447,alternatingbabyloc,2023.2.2,60.00728932571065,
,,,,,,,,565.9385467379998,50,KP_faces_1.mp4,BR,6,vpnl,2024-02-10_20h54.46.447,alternatingbabyloc,2023.2.2,60.00728932571065,
,,,,,,,,569.8963762149997,51,blank.mp4,BR,6,vpnl,2024-02-10_20h54.46.447,alternatingbabyloc,2023.2.2,60.00728932571065,
,,,,,,,,573.9365772189994,52,BP_faces_3.mp4,BR,6,vpnl,2024-02-10_20h54.46.447,alternatingbabyloc,2023.2.2,60.00728932571065,
,,,,,,,,577.9251977409986,53,rockystream_1.mp4,BR,6,vpnl,2024-02-10_20h54.46.447,alternatingbabyloc,2023.2.2,60.00728932571065,
,,,,,,,,581.9097198130003,54,blank.mp4,BR,6,vpnl,2024-02-10_20h54.46.447,alternatingbabyloc,2023.2.2,60.00728932571065,
,,,,,,,,585.9494288179994,55,SS_hands_2.mp4,BR,6,vpnl,2024-02-10_20h54.46.447,alternatingbabyloc,2023.2.2,60.00728932571065,
,,,,,,,,589.9627153679994,56,car4_1.mp4,BR,6,vpnl,2024-02-10_20h54.46.447,alternatingbabyloc,2023.2.2,60.00728932571065,
,,,,,,,,593.9102022749994,57,blank.mp4,BR,6,vpnl,2024-02-10_20h54.46.447,alternatingbabyloc,2023.2.2,60.00728932571065,
,,,,,,,,597.9231728139985,58,waves_4.mp4,BR,6,vpnl,2024-02-10_20h54.46.447,alternatingbabyloc,2023.2.2,60.00728932571065,
,,,,,,,,601.913672835999,59,HO_hands_2.mp4,BR,6,vpnl,2024-02-10_20h54.46.447,alternatingbabyloc,2023.2.2,60.00728932571065,
,,,,,,,,605.9320711199998,60,car7_1.mp4,BR,6,vpnl,2024-02-10_20h54.46.447,alternatingbabyloc,2023.2.2,60.00728932571065,
,,,,,,,,609.9154299279999,61,IK_faces_1.mp4,BR,6,vpnl,2024-02-10_20h54.46.447,alternatingbabyloc,2023.2.2,60.00728932571065,
,,,,,,,,613.8966170329986,62,blank.mp4,BR,6,vpnl,2024-02-10_20h54.46.447,alternatingbabyloc,2023.2.2,60.00728932571065,
