thisRow.t,notes,waiting_for_trigger_text.started,trigger.started,trigger.keys,trigger.rt,countdown.started,countdown.stopped,trial.stopped,stimuli.started,condition,stim_name,stimuli.stopped,participant,run,user,date,expName,psychopyVersion,frameRate,
,,252.6747188779991,252.6747188779991,t,21.475185074014007,,,,,,,,AC,1,vpnl,2023-11-16_20h52.54.533,midbabyloc,2023.2.2,60.250619925799334,
,,,,,,274.17867769199074,280.17874889798986,27.500553381993086,280.17874889798986,1,blank-65.jpg,280.6792090809904,AC,1,vpnl,2023-11-16_20h52.54.533,midbabyloc,2023.2.2,60.250619925799334,
,,,,,,,,,280.6792090809904,1,blank-66.jpg,281.17939591698814,AC,1,vpnl,2023-11-16_20h52.54.533,midbabyloc,2023.2.2,60.250619925799334,
,,,,,,,,,281.17939591698814,1,blank-67.jpg,281.6794166109903,AC,1,vpnl,2023-11-16_20h52.54.533,midbabyloc,2023.2.2,60.250619925799334,
,,,,,,,,,281.6794166109903,1,blank-68.jpg,282.17898529699596,AC,1,vpnl,2023-11-16_20h52.54.533,midbabyloc,2023.2.2,60.250619925799334,
,,,,,,,,,282.17898529699596,1,blank-69.jpg,282.6788988329936,AC,1,vpnl,2023-11-16_20h52.54.533,midbabyloc,2023.2.2,60.250619925799334,
,,,,,,,,,282.6788988329936,1,blank-70.jpg,,AC,1,vpnl,2023-11-16_20h52.54.533,midbabyloc,2023.2.2,60.250619925799334,
,,,,,,,,,283.18136671799584,1,blank-71.jpg,,AC,1,vpnl,2023-11-16_20h52.54.533,midbabyloc,2023.2.2,60.250619925799334,
,,,,,,,,,283.68046727299225,1,blank-72.jpg,,AC,1,vpnl,2023-11-16_20h52.54.533,midbabyloc,2023.2.2,60.250619925799334,
,,,,,,,,,284.1829452009988,2,scenes-65.jpg,,AC,1,vpnl,2023-11-16_20h52.54.533,midbabyloc,2023.2.2,60.250619925799334,
,,,,,,,,,284.6812702189927,2,scenes-66.jpg,,AC,1,vpnl,2023-11-16_20h52.54.533,midbabyloc,2023.2.2,60.250619925799334,
,,,,,,,,,285.18116303799616,2,scenes-67.jpg,,AC,1,vpnl,2023-11-16_20h52.54.533,midbabyloc,2023.2.2,60.250619925799334,
,,,,,,,,,285.68146780799725,2,scenes-68.jpg,,AC,1,vpnl,2023-11-16_20h52.54.533,midbabyloc,2023.2.2,60.250619925799334,
,,,,,,,,,286.18292208098865,2,scenes-69.jpg,,AC,1,vpnl,2023-11-16_20h52.54.533,midbabyloc,2023.2.2,60.250619925799334,
,,,,,,,,,286.6811986989924,2,scenes-70.jpg,,AC,1,vpnl,2023-11-16_20h52.54.533,midbabyloc,2023.2.2,60.250619925799334,
,,,,,,,,,287.1798860220006,2,scenes-71.jpg,,AC,1,vpnl,2023-11-16_20h52.54.533,midbabyloc,2023.2.2,60.250619925799334,
,,,,,,,,,287.68024373298977,2,scenes-72.jpg,,AC,1,vpnl,2023-11-16_20h52.54.533,midbabyloc,2023.2.2,60.250619925799334,
,,,,,,,,,288.1818578800012,3,cars-65.jpg,,AC,1,vpnl,2023-11-16_20h52.54.533,midbabyloc,2023.2.2,60.250619925799334,
,,,,,,,,,288.6809881090012,3,cars-66.jpg,,AC,1,vpnl,2023-11-16_20h52.54.533,midbabyloc,2023.2.2,60.250619925799334,
,,,,,,,,,289.1808793569944,3,cars-67.jpg,,AC,1,vpnl,2023-11-16_20h52.54.533,midbabyloc,2023.2.2,60.250619925799334,
,,,,,,,,,289.69710089098953,3,cars-68.jpg,,AC,1,vpnl,2023-11-16_20h52.54.533,midbabyloc,2023.2.2,60.250619925799334,
,,,,,,,,,290.1823779779952,3,cars-69.jpg,,AC,1,vpnl,2023-11-16_20h52.54.533,midbabyloc,2023.2.2,60.250619925799334,
,,,,,,,,,290.69736709499557,3,cars-70.jpg,,AC,1,vpnl,2023-11-16_20h52.54.533,midbabyloc,2023.2.2,60.250619925799334,
,,,,,,,,,291.197230011996,3,cars-71.jpg,,AC,1,vpnl,2023-11-16_20h52.54.533,midbabyloc,2023.2.2,60.250619925799334,
,,,,,,,,,291.6976850689971,3,cars-72.jpg,,AC,1,vpnl,2023-11-16_20h52.54.533,midbabyloc,2023.2.2,60.250619925799334,
,,,,,,,,,292.19638905998727,4,faces-65.jpg,,AC,1,vpnl,2023-11-16_20h52.54.533,midbabyloc,2023.2.2,60.250619925799334,
,,,,,,,,,292.6975899599929,4,faces-66.jpg,,AC,1,vpnl,2023-11-16_20h52.54.533,midbabyloc,2023.2.2,60.250619925799334,
,,,,,,,,,293.1761917209951,4,faces-67.jpg,293.6757516009966,AC,1,vpnl,2023-11-16_20h52.54.533,midbabyloc,2023.2.2,60.250619925799334,
,,,,,,,,,293.6757516009966,4,faces-68.jpg,294.1759663470002,AC,1,vpnl,2023-11-16_20h52.54.533,midbabyloc,2023.2.2,60.250619925799334,
,,,,,,,,,294.1759663470002,4,faces-69.jpg,294.6759680099931,AC,1,vpnl,2023-11-16_20h52.54.533,midbabyloc,2023.2.2,60.250619925799334,
,,,,,,,,,294.6759680099931,4,faces-70.jpg,295.1759009309899,AC,1,vpnl,2023-11-16_20h52.54.533,midbabyloc,2023.2.2,60.250619925799334,
,,,,,,,,,295.1759009309899,4,faces-71.jpg,295.67595375399105,AC,1,vpnl,2023-11-16_20h52.54.533,midbabyloc,2023.2.2,60.250619925799334,
,,,,,,,,,295.67595375399105,4,faces-72.jpg,296.1757978339883,AC,1,vpnl,2023-11-16_20h52.54.533,midbabyloc,2023.2.2,60.250619925799334,
,,,,,,,,,296.1757978339883,5,hands-65.jpg,296.67586314199434,AC,1,vpnl,2023-11-16_20h52.54.533,midbabyloc,2023.2.2,60.250619925799334,
,,,,,,,,,296.67586314199434,5,hands-66.jpg,297.1758513409877,AC,1,vpnl,2023-11-16_20h52.54.533,midbabyloc,2023.2.2,60.250619925799334,
,,,,,,,,,297.1758513409877,5,hands-67.jpg,297.675786531996,AC,1,vpnl,2023-11-16_20h52.54.533,midbabyloc,2023.2.2,60.250619925799334,
,,,,,,,,,297.675786531996,5,hands-68.jpg,298.17576308199205,AC,1,vpnl,2023-11-16_20h52.54.533,midbabyloc,2023.2.2,60.250619925799334,
,,,,,,,,,298.17576308199205,5,hands-69.jpg,298.67575273699185,AC,1,vpnl,2023-11-16_20h52.54.533,midbabyloc,2023.2.2,60.250619925799334,
,,,,,,,,,298.67575273699185,5,hands-70.jpg,299.17599597199296,AC,1,vpnl,2023-11-16_20h52.54.533,midbabyloc,2023.2.2,60.250619925799334,
,,,,,,,,,299.17599597199296,5,hands-71.jpg,299.6757493079931,AC,1,vpnl,2023-11-16_20h52.54.533,midbabyloc,2023.2.2,60.250619925799334,
,,,,,,,,,299.6757493079931,5,hands-72.jpg,300.17570649299887,AC,1,vpnl,2023-11-16_20h52.54.533,midbabyloc,2023.2.2,60.250619925799334,
,,,,,,,,,300.17570649299887,6,blank-73.jpg,300.67576962299063,AC,1,vpnl,2023-11-16_20h52.54.533,midbabyloc,2023.2.2,60.250619925799334,
,,,,,,,,,300.67576962299063,6,blank-74.jpg,301.17573840299156,AC,1,vpnl,2023-11-16_20h52.54.533,midbabyloc,2023.2.2,60.250619925799334,
,,,,,,,,,301.17573840299156,6,blank-75.jpg,301.6757546489971,AC,1,vpnl,2023-11-16_20h52.54.533,midbabyloc,2023.2.2,60.250619925799334,
,,,,,,,,,301.6757546489971,6,blank-76.jpg,302.175782522987,AC,1,vpnl,2023-11-16_20h52.54.533,midbabyloc,2023.2.2,60.250619925799334,
,,,,,,,,,302.175782522987,6,blank-77.jpg,302.67579103598837,AC,1,vpnl,2023-11-16_20h52.54.533,midbabyloc,2023.2.2,60.250619925799334,
,,,,,,,,,302.67579103598837,6,blank-78.jpg,303.175458615995,AC,1,vpnl,2023-11-16_20h52.54.533,midbabyloc,2023.2.2,60.250619925799334,
,,,,,,,,,303.175458615995,6,blank-79.jpg,303.67591763199016,AC,1,vpnl,2023-11-16_20h52.54.533,midbabyloc,2023.2.2,60.250619925799334,
,,,,,,,,,303.67591763199016,6,blank-80.jpg,304.17694372098777,AC,1,vpnl,2023-11-16_20h52.54.533,midbabyloc,2023.2.2,60.250619925799334,
,,,,,,,,,304.17694372098777,7,scenes-73.jpg,,AC,1,vpnl,2023-11-16_20h52.54.533,midbabyloc,2023.2.2,60.250619925799334,
,,,,,,,,,304.69238329499785,7,scenes-74.jpg,,AC,1,vpnl,2023-11-16_20h52.54.533,midbabyloc,2023.2.2,60.250619925799334,
,,,,,,,,,305.1923728319962,7,scenes-75.jpg,,AC,1,vpnl,2023-11-16_20h52.54.533,midbabyloc,2023.2.2,60.250619925799334,
,,,,,,,,,305.69233589399664,7,scenes-76.jpg,,AC,1,vpnl,2023-11-16_20h52.54.533,midbabyloc,2023.2.2,60.250619925799334,
,,,,,,,,,306.19230001899996,7,scenes-77.jpg,,AC,1,vpnl,2023-11-16_20h52.54.533,midbabyloc,2023.2.2,60.250619925799334,
,,,,,,,,,306.6922844590008,7,scenes-78.jpg,,AC,1,vpnl,2023-11-16_20h52.54.533,midbabyloc,2023.2.2,60.250619925799334,
,,,,,,,,,307.1923562109878,7,scenes-79.jpg,,AC,1,vpnl,2023-11-16_20h52.54.533,midbabyloc,2023.2.2,60.250619925799334,
,,,,,,,,,307.692399476,7,scenes-80.jpg,,AC,1,vpnl,2023-11-16_20h52.54.533,midbabyloc,2023.2.2,60.250619925799334,
,,,,,,,,,308.1924229879951,8,blank-81.jpg,,AC,1,vpnl,2023-11-16_20h52.54.533,midbabyloc,2023.2.2,60.250619925799334,
,,,,,,,,,308.69225919499877,8,blank-82.jpg,,AC,1,vpnl,2023-11-16_20h52.54.533,midbabyloc,2023.2.2,60.250619925799334,
,,,,,,,,,309.19221373098844,8,blank-83.jpg,,AC,1,vpnl,2023-11-16_20h52.54.533,midbabyloc,2023.2.2,60.250619925799334,
,,,,,,,,,309.6922982449905,8,blank-84.jpg,,AC,1,vpnl,2023-11-16_20h52.54.533,midbabyloc,2023.2.2,60.250619925799334,
,,,,,,,,,310.19220347498776,8,blank-85.jpg,,AC,1,vpnl,2023-11-16_20h52.54.533,midbabyloc,2023.2.2,60.250619925799334,
,,,,,,,,,310.6922751379898,8,blank-86.jpg,,AC,1,vpnl,2023-11-16_20h52.54.533,midbabyloc,2023.2.2,60.250619925799334,
,,,,,,,,,311.1923080019915,8,blank-87.jpg,,AC,1,vpnl,2023-11-16_20h52.54.533,midbabyloc,2023.2.2,60.250619925799334,
,,,,,,,,,311.6922583409905,8,blank-88.jpg,,AC,1,vpnl,2023-11-16_20h52.54.533,midbabyloc,2023.2.2,60.250619925799334,
,,,,,,,,,312.192311116989,9,hands-73.jpg,,AC,1,vpnl,2023-11-16_20h52.54.533,midbabyloc,2023.2.2,60.250619925799334,
,,,,,,,,,312.69223198598775,9,hands-74.jpg,,AC,1,vpnl,2023-11-16_20h52.54.533,midbabyloc,2023.2.2,60.250619925799334,
,,,,,,,,,313.1921733739873,9,hands-75.jpg,,AC,1,vpnl,2023-11-16_20h52.54.533,midbabyloc,2023.2.2,60.250619925799334,
,,,,,,,,,313.692176157987,9,hands-76.jpg,,AC,1,vpnl,2023-11-16_20h52.54.533,midbabyloc,2023.2.2,60.250619925799334,
,,,,,,,,,314.1922071739973,9,hands-77.jpg,,AC,1,vpnl,2023-11-16_20h52.54.533,midbabyloc,2023.2.2,60.250619925799334,
,,,,,,,,,314.692355370993,9,hands-78.jpg,,AC,1,vpnl,2023-11-16_20h52.54.533,midbabyloc,2023.2.2,60.250619925799334,
,,,,,,,,,315.19228599399503,9,hands-79.jpg,,AC,1,vpnl,2023-11-16_20h52.54.533,midbabyloc,2023.2.2,60.250619925799334,
,,,,,,,,,315.69215219399484,9,hands-80.jpg,,AC,1,vpnl,2023-11-16_20h52.54.533,midbabyloc,2023.2.2,60.250619925799334,
,,,,,,,,,316.1921548359969,10,cars-73.jpg,,AC,1,vpnl,2023-11-16_20h52.54.533,midbabyloc,2023.2.2,60.250619925799334,
,,,,,,,,,316.69209623998904,10,cars-74.jpg,,AC,1,vpnl,2023-11-16_20h52.54.533,midbabyloc,2023.2.2,60.250619925799334,
,,,,,,,,,317.19227600700106,10,cars-75.jpg,,AC,1,vpnl,2023-11-16_20h52.54.533,midbabyloc,2023.2.2,60.250619925799334,
,,,,,,,,,317.6921082359913,10,cars-76.jpg,,AC,1,vpnl,2023-11-16_20h52.54.533,midbabyloc,2023.2.2,60.250619925799334,
,,,,,,,,,318.1921064249909,10,cars-77.jpg,,AC,1,vpnl,2023-11-16_20h52.54.533,midbabyloc,2023.2.2,60.250619925799334,
,,,,,,,,,318.69197100900055,10,cars-78.jpg,,AC,1,vpnl,2023-11-16_20h52.54.533,midbabyloc,2023.2.2,60.250619925799334,
,,,,,,,,,319.1920893189963,10,cars-79.jpg,,AC,1,vpnl,2023-11-16_20h52.54.533,midbabyloc,2023.2.2,60.250619925799334,
,,,,,,,,,319.69204848598747,10,cars-80.jpg,,AC,1,vpnl,2023-11-16_20h52.54.533,midbabyloc,2023.2.2,60.250619925799334,
,,,,,,,,,320.19215790199814,11,faces-73.jpg,,AC,1,vpnl,2023-11-16_20h52.54.533,midbabyloc,2023.2.2,60.250619925799334,
,,,,,,,,,320.6920604039915,11,faces-74.jpg,,AC,1,vpnl,2023-11-16_20h52.54.533,midbabyloc,2023.2.2,60.250619925799334,
,,,,,,,,,321.19210418500006,11,faces-75.jpg,,AC,1,vpnl,2023-11-16_20h52.54.533,midbabyloc,2023.2.2,60.250619925799334,
,,,,,,,,,321.6920757499902,11,faces-76.jpg,,AC,1,vpnl,2023-11-16_20h52.54.533,midbabyloc,2023.2.2,60.250619925799334,
,,,,,,,,,322.19263683799363,11,faces-77.jpg,,AC,1,vpnl,2023-11-16_20h52.54.533,midbabyloc,2023.2.2,60.250619925799334,
,,,,,,,,,322.69204075299785,11,faces-78.jpg,,AC,1,vpnl,2023-11-16_20h52.54.533,midbabyloc,2023.2.2,60.250619925799334,
,,,,,,,,,323.192035125001,11,faces-79.jpg,,AC,1,vpnl,2023-11-16_20h52.54.533,midbabyloc,2023.2.2,60.250619925799334,
,,,,,,,,,323.6919837819878,11,faces-80.jpg,,AC,1,vpnl,2023-11-16_20h52.54.533,midbabyloc,2023.2.2,60.250619925799334,
,,,,,,,,,324.19199079700047,12,cars-81.jpg,,AC,1,vpnl,2023-11-16_20h52.54.533,midbabyloc,2023.2.2,60.250619925799334,
,,,,,,,,,324.69197312300093,12,cars-82.jpg,,AC,1,vpnl,2023-11-16_20h52.54.533,midbabyloc,2023.2.2,60.250619925799334,
,,,,,,,,,325.19196009299776,12,cars-83.jpg,,AC,1,vpnl,2023-11-16_20h52.54.533,midbabyloc,2023.2.2,60.250619925799334,
,,,,,,,,,325.6920120489958,12,cars-84.jpg,,AC,1,vpnl,2023-11-16_20h52.54.533,midbabyloc,2023.2.2,60.250619925799334,
,,,,,,,,,326.19196915399516,12,cars-85.jpg,,AC,1,vpnl,2023-11-16_20h52.54.533,midbabyloc,2023.2.2,60.250619925799334,
,,,,,,,,,326.69201344199246,12,cars-86.jpg,,AC,1,vpnl,2023-11-16_20h52.54.533,midbabyloc,2023.2.2,60.250619925799334,
,,,,,,,,,327.19199562398717,12,cars-87.jpg,,AC,1,vpnl,2023-11-16_20h52.54.533,midbabyloc,2023.2.2,60.250619925799334,
,,,,,,,,,327.6920856869983,12,cars-88.jpg,,AC,1,vpnl,2023-11-16_20h52.54.533,midbabyloc,2023.2.2,60.250619925799334,
,,,,,,,,,328.1919421979983,13,scenes-81.jpg,,AC,1,vpnl,2023-11-16_20h52.54.533,midbabyloc,2023.2.2,60.250619925799334,
,,,,,,,,,328.69179524999345,13,scenes-82.jpg,,AC,1,vpnl,2023-11-16_20h52.54.533,midbabyloc,2023.2.2,60.250619925799334,
,,,,,,,,,329.19190753498697,13,scenes-83.jpg,,AC,1,vpnl,2023-11-16_20h52.54.533,midbabyloc,2023.2.2,60.250619925799334,
,,,,,,,,,329.69190629299555,13,scenes-84.jpg,,AC,1,vpnl,2023-11-16_20h52.54.533,midbabyloc,2023.2.2,60.250619925799334,
,,,,,,,,,330.1917720099882,13,scenes-85.jpg,,AC,1,vpnl,2023-11-16_20h52.54.533,midbabyloc,2023.2.2,60.250619925799334,
,,,,,,,,,330.6917703599902,13,scenes-86.jpg,,AC,1,vpnl,2023-11-16_20h52.54.533,midbabyloc,2023.2.2,60.250619925799334,
,,,,,,,,,331.1923188949877,13,scenes-87.jpg,,AC,1,vpnl,2023-11-16_20h52.54.533,midbabyloc,2023.2.2,60.250619925799334,
,,,,,,,,,331.6919083769899,13,scenes-88.jpg,,AC,1,vpnl,2023-11-16_20h52.54.533,midbabyloc,2023.2.2,60.250619925799334,
,,,,,,,,,332.19184466599836,14,hands-81.jpg,,AC,1,vpnl,2023-11-16_20h52.54.533,midbabyloc,2023.2.2,60.250619925799334,
,,,,,,,,,332.6918268939917,14,hands-82.jpg,,AC,1,vpnl,2023-11-16_20h52.54.533,midbabyloc,2023.2.2,60.250619925799334,
,,,,,,,,,333.19193297399033,14,hands-83.jpg,,AC,1,vpnl,2023-11-16_20h52.54.533,midbabyloc,2023.2.2,60.250619925799334,
,,,,,,,,,333.69186382000044,14,hands-84.jpg,,AC,1,vpnl,2023-11-16_20h52.54.533,midbabyloc,2023.2.2,60.250619925799334,
,,,,,,,,,334.19172102599987,14,hands-85.jpg,,AC,1,vpnl,2023-11-16_20h52.54.533,midbabyloc,2023.2.2,60.250619925799334,
,,,,,,,,,334.691820121996,14,hands-86.jpg,,AC,1,vpnl,2023-11-16_20h52.54.533,midbabyloc,2023.2.2,60.250619925799334,
,,,,,,,,,335.1918614710012,14,hands-87.jpg,,AC,1,vpnl,2023-11-16_20h52.54.533,midbabyloc,2023.2.2,60.250619925799334,
,,,,,,,,,335.69173573999433,14,hands-88.jpg,,AC,1,vpnl,2023-11-16_20h52.54.533,midbabyloc,2023.2.2,60.250619925799334,
,,,,,,,,,336.19166350198793,15,faces-81.jpg,,AC,1,vpnl,2023-11-16_20h52.54.533,midbabyloc,2023.2.2,60.250619925799334,
,,,,,,,,,336.6916193609941,15,faces-82.jpg,,AC,1,vpnl,2023-11-16_20h52.54.533,midbabyloc,2023.2.2,60.250619925799334,
,,,,,,,,,337.1917573989922,15,faces-83.jpg,,AC,1,vpnl,2023-11-16_20h52.54.533,midbabyloc,2023.2.2,60.250619925799334,
,,,,,,,,,337.6930552749982,15,faces-84.jpg,,AC,1,vpnl,2023-11-16_20h52.54.533,midbabyloc,2023.2.2,60.250619925799334,
,,,,,,,,,338.1918546129891,15,faces-85.jpg,,AC,1,vpnl,2023-11-16_20h52.54.533,midbabyloc,2023.2.2,60.250619925799334,
,,,,,,,,,338.6916970029997,15,faces-86.jpg,,AC,1,vpnl,2023-11-16_20h52.54.533,midbabyloc,2023.2.2,60.250619925799334,
,,,,,,,,,339.1918302369886,15,faces-87.jpg,,AC,1,vpnl,2023-11-16_20h52.54.533,midbabyloc,2023.2.2,60.250619925799334,
,,,,,,,,,339.69169855599466,15,faces-88.jpg,,AC,1,vpnl,2023-11-16_20h52.54.533,midbabyloc,2023.2.2,60.250619925799334,
,,,,,,,,,340.19159550999757,16,blank-89.jpg,,AC,1,vpnl,2023-11-16_20h52.54.533,midbabyloc,2023.2.2,60.250619925799334,
,,,,,,,,,340.6917406649882,16,blank-90.jpg,,AC,1,vpnl,2023-11-16_20h52.54.533,midbabyloc,2023.2.2,60.250619925799334,
,,,,,,,,,341.19175194599666,16,blank-91.jpg,,AC,1,vpnl,2023-11-16_20h52.54.533,midbabyloc,2023.2.2,60.250619925799334,
,,,,,,,,,341.6917024229915,16,blank-92.jpg,,AC,1,vpnl,2023-11-16_20h52.54.533,midbabyloc,2023.2.2,60.250619925799334,
,,,,,,,,,342.19169087200135,16,blank-93.jpg,,AC,1,vpnl,2023-11-16_20h52.54.533,midbabyloc,2023.2.2,60.250619925799334,
,,,,,,,,,342.6916816629964,16,blank-94.jpg,,AC,1,vpnl,2023-11-16_20h52.54.533,midbabyloc,2023.2.2,60.250619925799334,
,,,,,,,,,343.1919596379885,16,blank-95.jpg,,AC,1,vpnl,2023-11-16_20h52.54.533,midbabyloc,2023.2.2,60.250619925799334,
,,,,,,,,,343.69161207099387,16,blank-96.jpg,,AC,1,vpnl,2023-11-16_20h52.54.533,midbabyloc,2023.2.2,60.250619925799334,
,,,,,,,,,344.1915224580007,17,hands-89.jpg,,AC,1,vpnl,2023-11-16_20h52.54.533,midbabyloc,2023.2.2,60.250619925799334,
,,,,,,,,,344.6927579990006,17,hands-90.jpg,,AC,1,vpnl,2023-11-16_20h52.54.533,midbabyloc,2023.2.2,60.250619925799334,
,,,,,,,,,345.19159198699344,17,hands-91.jpg,,AC,1,vpnl,2023-11-16_20h52.54.533,midbabyloc,2023.2.2,60.250619925799334,
,,,,,,,,,345.6916771929973,17,hands-92.jpg,,AC,1,vpnl,2023-11-16_20h52.54.533,midbabyloc,2023.2.2,60.250619925799334,
,,,,,,,,,346.1916342909972,17,hands-93.jpg,,AC,1,vpnl,2023-11-16_20h52.54.533,midbabyloc,2023.2.2,60.250619925799334,
,,,,,,,,,346.6915954439901,17,hands-94.jpg,,AC,1,vpnl,2023-11-16_20h52.54.533,midbabyloc,2023.2.2,60.250619925799334,
,,,,,,,,,347.19161106199317,17,hands-95.jpg,,AC,1,vpnl,2023-11-16_20h52.54.533,midbabyloc,2023.2.2,60.250619925799334,
,,,,,,,,,347.69170256699726,17,hands-96.jpg,,AC,1,vpnl,2023-11-16_20h52.54.533,midbabyloc,2023.2.2,60.250619925799334,
,,,,,,,,,348.19156705499336,18,blank-97.jpg,,AC,1,vpnl,2023-11-16_20h52.54.533,midbabyloc,2023.2.2,60.250619925799334,
,,,,,,,,,348.6916619659896,18,blank-98.jpg,,AC,1,vpnl,2023-11-16_20h52.54.533,midbabyloc,2023.2.2,60.250619925799334,
,,,,,,,,,349.19151386599697,18,blank-99.jpg,,AC,1,vpnl,2023-11-16_20h52.54.533,midbabyloc,2023.2.2,60.250619925799334,
,,,,,,,,,349.69356870900083,18,blank-100.jpg,,AC,1,vpnl,2023-11-16_20h52.54.533,midbabyloc,2023.2.2,60.250619925799334,
,,,,,,,,,350.1915319599939,18,blank-101.jpg,,AC,1,vpnl,2023-11-16_20h52.54.533,midbabyloc,2023.2.2,60.250619925799334,
,,,,,,,,,350.6915625729889,18,blank-102.jpg,,AC,1,vpnl,2023-11-16_20h52.54.533,midbabyloc,2023.2.2,60.250619925799334,
,,,,,,,,,351.1915840099973,18,blank-103.jpg,,AC,1,vpnl,2023-11-16_20h52.54.533,midbabyloc,2023.2.2,60.250619925799334,
,,,,,,,,,351.6915277349908,18,blank-104.jpg,,AC,1,vpnl,2023-11-16_20h52.54.533,midbabyloc,2023.2.2,60.250619925799334,
,,,,,,,,,352.19146047899267,19,cars-89.jpg,,AC,1,vpnl,2023-11-16_20h52.54.533,midbabyloc,2023.2.2,60.250619925799334,
,,,,,,,,,352.69167530498817,19,cars-90.jpg,,AC,1,vpnl,2023-11-16_20h52.54.533,midbabyloc,2023.2.2,60.250619925799334,
,,,,,,,,,353.1914536099939,19,cars-91.jpg,,AC,1,vpnl,2023-11-16_20h52.54.533,midbabyloc,2023.2.2,60.250619925799334,
,,,,,,,,,353.691514672988,19,cars-92.jpg,,AC,1,vpnl,2023-11-16_20h52.54.533,midbabyloc,2023.2.2,60.250619925799334,
,,,,,,,,,354.1914588770014,19,cars-93.jpg,,AC,1,vpnl,2023-11-16_20h52.54.533,midbabyloc,2023.2.2,60.250619925799334,
,,,,,,,,,354.69144871199387,19,cars-94.jpg,,AC,1,vpnl,2023-11-16_20h52.54.533,midbabyloc,2023.2.2,60.250619925799334,
,,,,,,,,,355.19153595399985,19,cars-95.jpg,,AC,1,vpnl,2023-11-16_20h52.54.533,midbabyloc,2023.2.2,60.250619925799334,
,,,,,,,,,355.6914978220011,19,cars-96.jpg,,AC,1,vpnl,2023-11-16_20h52.54.533,midbabyloc,2023.2.2,60.250619925799334,
,,,,,,,,,356.1914634319983,20,scenes-89.jpg,,AC,1,vpnl,2023-11-16_20h52.54.533,midbabyloc,2023.2.2,60.250619925799334,
,,,,,,,,,356.69167404199834,20,scenes-90.jpg,,AC,1,vpnl,2023-11-16_20h52.54.533,midbabyloc,2023.2.2,60.250619925799334,
,,,,,,,,,357.1912908059894,20,scenes-91.jpg,,AC,1,vpnl,2023-11-16_20h52.54.533,midbabyloc,2023.2.2,60.250619925799334,
,,,,,,,,,357.6915083979984,20,scenes-92.jpg,,AC,1,vpnl,2023-11-16_20h52.54.533,midbabyloc,2023.2.2,60.250619925799334,
,,,,,,,,,358.1913560009998,20,scenes-93.jpg,,AC,1,vpnl,2023-11-16_20h52.54.533,midbabyloc,2023.2.2,60.250619925799334,
,,,,,,,,,358.6914279539924,20,scenes-94.jpg,,AC,1,vpnl,2023-11-16_20h52.54.533,midbabyloc,2023.2.2,60.250619925799334,
,,,,,,,,,359.19139525199716,20,scenes-95.jpg,,AC,1,vpnl,2023-11-16_20h52.54.533,midbabyloc,2023.2.2,60.250619925799334,
,,,,,,,,,359.69119870899885,20,scenes-96.jpg,,AC,1,vpnl,2023-11-16_20h52.54.533,midbabyloc,2023.2.2,60.250619925799334,
,,,,,,,,,360.191531051998,21,faces-89.jpg,,AC,1,vpnl,2023-11-16_20h52.54.533,midbabyloc,2023.2.2,60.250619925799334,
,,,,,,,,,360.69119399398915,21,faces-90.jpg,,AC,1,vpnl,2023-11-16_20h52.54.533,midbabyloc,2023.2.2,60.250619925799334,
,,,,,,,,,361.1914123489987,21,faces-91.jpg,,AC,1,vpnl,2023-11-16_20h52.54.533,midbabyloc,2023.2.2,60.250619925799334,
,,,,,,,,,361.6913070179871,21,faces-92.jpg,,AC,1,vpnl,2023-11-16_20h52.54.533,midbabyloc,2023.2.2,60.250619925799334,
,,,,,,,,,362.19125022599474,21,faces-93.jpg,,AC,1,vpnl,2023-11-16_20h52.54.533,midbabyloc,2023.2.2,60.250619925799334,
,,,,,,,,,362.69125123698905,21,faces-94.jpg,,AC,1,vpnl,2023-11-16_20h52.54.533,midbabyloc,2023.2.2,60.250619925799334,
,,,,,,,,,363.1913900609943,21,faces-95.jpg,,AC,1,vpnl,2023-11-16_20h52.54.533,midbabyloc,2023.2.2,60.250619925799334,
,,,,,,,,,363.6912375549873,21,faces-96.jpg,,AC,1,vpnl,2023-11-16_20h52.54.533,midbabyloc,2023.2.2,60.250619925799334,
,,,,,,,,,364.19129973898816,22,scenes-97.jpg,,AC,1,vpnl,2023-11-16_20h52.54.533,midbabyloc,2023.2.2,60.250619925799334,
,,,,,,,,,364.6913189229963,22,scenes-98.jpg,,AC,1,vpnl,2023-11-16_20h52.54.533,midbabyloc,2023.2.2,60.250619925799334,
,,,,,,,,,365.1912546699896,22,scenes-99.jpg,,AC,1,vpnl,2023-11-16_20h52.54.533,midbabyloc,2023.2.2,60.250619925799334,
,,,,,,,,,365.6912669399899,22,scenes-100.jpg,,AC,1,vpnl,2023-11-16_20h52.54.533,midbabyloc,2023.2.2,60.250619925799334,
,,,,,,,,,366.1912746929884,22,scenes-101.jpg,,AC,1,vpnl,2023-11-16_20h52.54.533,midbabyloc,2023.2.2,60.250619925799334,
,,,,,,,,,366.6913995099894,22,scenes-102.jpg,,AC,1,vpnl,2023-11-16_20h52.54.533,midbabyloc,2023.2.2,60.250619925799334,
,,,,,,,,,367.1912571309949,22,scenes-103.jpg,,AC,1,vpnl,2023-11-16_20h52.54.533,midbabyloc,2023.2.2,60.250619925799334,
,,,,,,,,,367.69123329099966,22,scenes-104.jpg,,AC,1,vpnl,2023-11-16_20h52.54.533,midbabyloc,2023.2.2,60.250619925799334,
,,,,,,,,,368.1912594969908,23,hands-97.jpg,,AC,1,vpnl,2023-11-16_20h52.54.533,midbabyloc,2023.2.2,60.250619925799334,
,,,,,,,,,368.691243194,23,hands-98.jpg,,AC,1,vpnl,2023-11-16_20h52.54.533,midbabyloc,2023.2.2,60.250619925799334,
,,,,,,,,,369.1913795739965,23,hands-99.jpg,,AC,1,vpnl,2023-11-16_20h52.54.533,midbabyloc,2023.2.2,60.250619925799334,
,,,,,,,,,369.69108707898704,23,hands-100.jpg,,AC,1,vpnl,2023-11-16_20h52.54.533,midbabyloc,2023.2.2,60.250619925799334,
,,,,,,,,,370.1910353189887,23,hands-101.jpg,,AC,1,vpnl,2023-11-16_20h52.54.533,midbabyloc,2023.2.2,60.250619925799334,
,,,,,,,,,370.6910723609908,23,hands-102.jpg,,AC,1,vpnl,2023-11-16_20h52.54.533,midbabyloc,2023.2.2,60.250619925799334,
,,,,,,,,,371.1928570710006,23,hands-103.jpg,,AC,1,vpnl,2023-11-16_20h52.54.533,midbabyloc,2023.2.2,60.250619925799334,
,,,,,,,,,371.6910897159978,23,hands-104.jpg,,AC,1,vpnl,2023-11-16_20h52.54.533,midbabyloc,2023.2.2,60.250619925799334,
,,,,,,,,,372.1910805179941,24,faces-97.jpg,,AC,1,vpnl,2023-11-16_20h52.54.533,midbabyloc,2023.2.2,60.250619925799334,
,,,,,,,,,372.6910845579987,24,faces-98.jpg,,AC,1,vpnl,2023-11-16_20h52.54.533,midbabyloc,2023.2.2,60.250619925799334,
,,,,,,,,,373.19113831198774,24,faces-99.jpg,,AC,1,vpnl,2023-11-16_20h52.54.533,midbabyloc,2023.2.2,60.250619925799334,
,,,,,,,,,373.6910703629983,24,faces-100.jpg,,AC,1,vpnl,2023-11-16_20h52.54.533,midbabyloc,2023.2.2,60.250619925799334,
,,,,,,,,,374.19113939900126,24,faces-101.jpg,,AC,1,vpnl,2023-11-16_20h52.54.533,midbabyloc,2023.2.2,60.250619925799334,
,,,,,,,,,374.6911203849886,24,faces-102.jpg,,AC,1,vpnl,2023-11-16_20h52.54.533,midbabyloc,2023.2.2,60.250619925799334,
,,,,,,,,,375.19113843599916,24,faces-103.jpg,,AC,1,vpnl,2023-11-16_20h52.54.533,midbabyloc,2023.2.2,60.250619925799334,
,,,,,,,,,375.6909671119938,24,faces-104.jpg,,AC,1,vpnl,2023-11-16_20h52.54.533,midbabyloc,2023.2.2,60.250619925799334,
,,,,,,,,,376.1909531769925,25,cars-97.jpg,,AC,1,vpnl,2023-11-16_20h52.54.533,midbabyloc,2023.2.2,60.250619925799334,
,,,,,,,,,376.6909006979986,25,cars-98.jpg,,AC,1,vpnl,2023-11-16_20h52.54.533,midbabyloc,2023.2.2,60.250619925799334,
,,,,,,,,,377.19099475500116,25,cars-99.jpg,,AC,1,vpnl,2023-11-16_20h52.54.533,midbabyloc,2023.2.2,60.250619925799334,
,,,,,,,,,377.6910780539911,25,cars-100.jpg,,AC,1,vpnl,2023-11-16_20h52.54.533,midbabyloc,2023.2.2,60.250619925799334,
,,,,,,,,,378.1909617199999,25,cars-101.jpg,,AC,1,vpnl,2023-11-16_20h52.54.533,midbabyloc,2023.2.2,60.250619925799334,
,,,,,,,,,378.6910130019969,25,cars-102.jpg,,AC,1,vpnl,2023-11-16_20h52.54.533,midbabyloc,2023.2.2,60.250619925799334,
,,,,,,,,,379.19085078498756,25,cars-103.jpg,,AC,1,vpnl,2023-11-16_20h52.54.533,midbabyloc,2023.2.2,60.250619925799334,
,,,,,,,,,379.6909458989976,25,cars-104.jpg,,AC,1,vpnl,2023-11-16_20h52.54.533,midbabyloc,2023.2.2,60.250619925799334,
,,,,,,,,,380.19096132399864,26,blank-105.jpg,,AC,1,vpnl,2023-11-16_20h52.54.533,midbabyloc,2023.2.2,60.250619925799334,
,,,,,,,,,380.690946429997,26,blank-106.jpg,,AC,1,vpnl,2023-11-16_20h52.54.533,midbabyloc,2023.2.2,60.250619925799334,
,,,,,,,,,381.19097705399327,26,blank-107.jpg,,AC,1,vpnl,2023-11-16_20h52.54.533,midbabyloc,2023.2.2,60.250619925799334,
,,,,,,,,,381.6908384329872,26,blank-108.jpg,,AC,1,vpnl,2023-11-16_20h52.54.533,midbabyloc,2023.2.2,60.250619925799334,
,,,,,,,,,382.19093583599897,26,blank-109.jpg,,AC,1,vpnl,2023-11-16_20h52.54.533,midbabyloc,2023.2.2,60.250619925799334,
,,,,,,,,,382.6908999219886,26,blank-110.jpg,,AC,1,vpnl,2023-11-16_20h52.54.533,midbabyloc,2023.2.2,60.250619925799334,
,,,,,,,,,383.19093946799694,26,blank-111.jpg,,AC,1,vpnl,2023-11-16_20h52.54.533,midbabyloc,2023.2.2,60.250619925799334,
,,,,,,,,,383.69092517899117,26,blank-112.jpg,,AC,1,vpnl,2023-11-16_20h52.54.533,midbabyloc,2023.2.2,60.250619925799334,
,,,,,,,,,384.19084446098714,27,hands-105.jpg,,AC,1,vpnl,2023-11-16_20h52.54.533,midbabyloc,2023.2.2,60.250619925799334,
,,,,,,,,,384.6908798749937,27,hands-106.jpg,,AC,1,vpnl,2023-11-16_20h52.54.533,midbabyloc,2023.2.2,60.250619925799334,
,,,,,,,,,385.1909745539888,27,hands-107.jpg,,AC,1,vpnl,2023-11-16_20h52.54.533,midbabyloc,2023.2.2,60.250619925799334,
,,,,,,,,,385.69088724500034,27,hands-108.jpg,,AC,1,vpnl,2023-11-16_20h52.54.533,midbabyloc,2023.2.2,60.250619925799334,
,,,,,,,,,386.19084031500097,27,hands-109.jpg,,AC,1,vpnl,2023-11-16_20h52.54.533,midbabyloc,2023.2.2,60.250619925799334,
,,,,,,,,,386.6908300419891,27,hands-110.jpg,,AC,1,vpnl,2023-11-16_20h52.54.533,midbabyloc,2023.2.2,60.250619925799334,
,,,,,,,,,387.1907738729933,27,hands-111.jpg,,AC,1,vpnl,2023-11-16_20h52.54.533,midbabyloc,2023.2.2,60.250619925799334,
,,,,,,,,,387.690871349987,27,hands-112.jpg,,AC,1,vpnl,2023-11-16_20h52.54.533,midbabyloc,2023.2.2,60.250619925799334,
,,,,,,,,,388.1908133269899,28,blank-113.jpg,,AC,1,vpnl,2023-11-16_20h52.54.533,midbabyloc,2023.2.2,60.250619925799334,
,,,,,,,,,388.69090726399736,28,blank-114.jpg,,AC,1,vpnl,2023-11-16_20h52.54.533,midbabyloc,2023.2.2,60.250619925799334,
,,,,,,,,,389.1908754629985,28,blank-115.jpg,,AC,1,vpnl,2023-11-16_20h52.54.533,midbabyloc,2023.2.2,60.250619925799334,
,,,,,,,,,389.6909561849898,28,blank-116.jpg,,AC,1,vpnl,2023-11-16_20h52.54.533,midbabyloc,2023.2.2,60.250619925799334,
,,,,,,,,,390.1907645339961,28,blank-117.jpg,,AC,1,vpnl,2023-11-16_20h52.54.533,midbabyloc,2023.2.2,60.250619925799334,
,,,,,,,,,390.69077664498764,28,blank-118.jpg,,AC,1,vpnl,2023-11-16_20h52.54.533,midbabyloc,2023.2.2,60.250619925799334,
,,,,,,,,,391.1907847169932,28,blank-119.jpg,,AC,1,vpnl,2023-11-16_20h52.54.533,midbabyloc,2023.2.2,60.250619925799334,
,,,,,,,,,391.69069059498725,28,blank-120.jpg,,AC,1,vpnl,2023-11-16_20h52.54.533,midbabyloc,2023.2.2,60.250619925799334,
,,,,,,,,,392.1907353209972,29,cars-105.jpg,,AC,1,vpnl,2023-11-16_20h52.54.533,midbabyloc,2023.2.2,60.250619925799334,
,,,,,,,,,392.6907385339873,29,cars-106.jpg,,AC,1,vpnl,2023-11-16_20h52.54.533,midbabyloc,2023.2.2,60.250619925799334,
,,,,,,,,,393.19077777999337,29,cars-107.jpg,,AC,1,vpnl,2023-11-16_20h52.54.533,midbabyloc,2023.2.2,60.250619925799334,
,,,,,,,,,393.6907421309879,29,cars-108.jpg,,AC,1,vpnl,2023-11-16_20h52.54.533,midbabyloc,2023.2.2,60.250619925799334,
,,,,,,,,,394.19071584199264,29,cars-109.jpg,,AC,1,vpnl,2023-11-16_20h52.54.533,midbabyloc,2023.2.2,60.250619925799334,
,,,,,,,,,394.6906646849966,29,cars-110.jpg,,AC,1,vpnl,2023-11-16_20h52.54.533,midbabyloc,2023.2.2,60.250619925799334,
,,,,,,,,,395.1907883879903,29,cars-111.jpg,,AC,1,vpnl,2023-11-16_20h52.54.533,midbabyloc,2023.2.2,60.250619925799334,
,,,,,,,,,395.6907690389926,29,cars-112.jpg,,AC,1,vpnl,2023-11-16_20h52.54.533,midbabyloc,2023.2.2,60.250619925799334,
,,,,,,,,,396.1908860849944,30,faces-105.jpg,,AC,1,vpnl,2023-11-16_20h52.54.533,midbabyloc,2023.2.2,60.250619925799334,
,,,,,,,,,396.69079484499525,30,faces-106.jpg,,AC,1,vpnl,2023-11-16_20h52.54.533,midbabyloc,2023.2.2,60.250619925799334,
,,,,,,,,,397.1906746249879,30,faces-107.jpg,,AC,1,vpnl,2023-11-16_20h52.54.533,midbabyloc,2023.2.2,60.250619925799334,
,,,,,,,,,397.6907367059903,30,faces-108.jpg,,AC,1,vpnl,2023-11-16_20h52.54.533,midbabyloc,2023.2.2,60.250619925799334,
,,,,,,,,,398.1906151789881,30,faces-109.jpg,,AC,1,vpnl,2023-11-16_20h52.54.533,midbabyloc,2023.2.2,60.250619925799334,
,,,,,,,,,398.6905881779967,30,faces-110.jpg,,AC,1,vpnl,2023-11-16_20h52.54.533,midbabyloc,2023.2.2,60.250619925799334,
,,,,,,,,,399.19050188499386,30,faces-111.jpg,,AC,1,vpnl,2023-11-16_20h52.54.533,midbabyloc,2023.2.2,60.250619925799334,
,,,,,,,,,399.69055369299895,30,faces-112.jpg,,AC,1,vpnl,2023-11-16_20h52.54.533,midbabyloc,2023.2.2,60.250619925799334,
,,,,,,,,,400.19037423899863,31,scenes-105.jpg,,AC,1,vpnl,2023-11-16_20h52.54.533,midbabyloc,2023.2.2,60.250619925799334,
,,,,,,,,,400.6905734829925,31,scenes-106.jpg,,AC,1,vpnl,2023-11-16_20h52.54.533,midbabyloc,2023.2.2,60.250619925799334,
,,,,,,,,,401.1918945249927,31,scenes-107.jpg,,AC,1,vpnl,2023-11-16_20h52.54.533,midbabyloc,2023.2.2,60.250619925799334,
,,,,,,,,,401.6906129389972,31,scenes-108.jpg,,AC,1,vpnl,2023-11-16_20h52.54.533,midbabyloc,2023.2.2,60.250619925799334,
,,,,,,,,,402.19056167500094,31,scenes-109.jpg,,AC,1,vpnl,2023-11-16_20h52.54.533,midbabyloc,2023.2.2,60.250619925799334,
,,,,,,,,,402.69061786698876,31,scenes-110.jpg,,AC,1,vpnl,2023-11-16_20h52.54.533,midbabyloc,2023.2.2,60.250619925799334,
,,,,,,,,,403.19055651300005,31,scenes-111.jpg,,AC,1,vpnl,2023-11-16_20h52.54.533,midbabyloc,2023.2.2,60.250619925799334,
,,,,,,,,,403.69046565498866,31,scenes-112.jpg,,AC,1,vpnl,2023-11-16_20h52.54.533,midbabyloc,2023.2.2,60.250619925799334,
,,,,,,,,,404.1905229769909,32,faces-113.jpg,,AC,1,vpnl,2023-11-16_20h52.54.533,midbabyloc,2023.2.2,60.250619925799334,
,,,,,,,,,404.6904552249907,32,faces-114.jpg,,AC,1,vpnl,2023-11-16_20h52.54.533,midbabyloc,2023.2.2,60.250619925799334,
,,,,,,,,,405.19030053498864,32,faces-115.jpg,,AC,1,vpnl,2023-11-16_20h52.54.533,midbabyloc,2023.2.2,60.250619925799334,
,,,,,,,,,405.6905059749988,32,faces-116.jpg,,AC,1,vpnl,2023-11-16_20h52.54.533,midbabyloc,2023.2.2,60.250619925799334,
,,,,,,,,,406.1904881149967,32,faces-117.jpg,,AC,1,vpnl,2023-11-16_20h52.54.533,midbabyloc,2023.2.2,60.250619925799334,
,,,,,,,,,406.69047833899094,32,faces-118.jpg,,AC,1,vpnl,2023-11-16_20h52.54.533,midbabyloc,2023.2.2,60.250619925799334,
,,,,,,,,,407.190516712988,32,faces-119.jpg,,AC,1,vpnl,2023-11-16_20h52.54.533,midbabyloc,2023.2.2,60.250619925799334,
,,,,,,,,,407.6905565009947,32,faces-120.jpg,,AC,1,vpnl,2023-11-16_20h52.54.533,midbabyloc,2023.2.2,60.250619925799334,
,,,,,,,,,408.19048797398864,33,hands-113.jpg,,AC,1,vpnl,2023-11-16_20h52.54.533,midbabyloc,2023.2.2,60.250619925799334,
,,,,,,,,,408.6903835080011,33,hands-114.jpg,,AC,1,vpnl,2023-11-16_20h52.54.533,midbabyloc,2023.2.2,60.250619925799334,
,,,,,,,,,409.19037733899313,33,hands-115.jpg,,AC,1,vpnl,2023-11-16_20h52.54.533,midbabyloc,2023.2.2,60.250619925799334,
,,,,,,,,,409.6924001659936,33,hands-116.jpg,,AC,1,vpnl,2023-11-16_20h52.54.533,midbabyloc,2023.2.2,60.250619925799334,
,,,,,,,,,410.19037784398824,33,hands-117.jpg,,AC,1,vpnl,2023-11-16_20h52.54.533,midbabyloc,2023.2.2,60.250619925799334,
,,,,,,,,,410.6903359729913,33,hands-118.jpg,,AC,1,vpnl,2023-11-16_20h52.54.533,midbabyloc,2023.2.2,60.250619925799334,
,,,,,,,,,411.1907361259946,33,hands-119.jpg,,AC,1,vpnl,2023-11-16_20h52.54.533,midbabyloc,2023.2.2,60.250619925799334,
,,,,,,,,,411.6905445489974,33,hands-120.jpg,,AC,1,vpnl,2023-11-16_20h52.54.533,midbabyloc,2023.2.2,60.250619925799334,
,,,,,,,,,412.1903126729885,34,cars-113.jpg,,AC,1,vpnl,2023-11-16_20h52.54.533,midbabyloc,2023.2.2,60.250619925799334,
,,,,,,,,,412.6904047860007,34,cars-114.jpg,,AC,1,vpnl,2023-11-16_20h52.54.533,midbabyloc,2023.2.2,60.250619925799334,
,,,,,,,,,413.1902103689936,34,cars-115.jpg,,AC,1,vpnl,2023-11-16_20h52.54.533,midbabyloc,2023.2.2,60.250619925799334,
,,,,,,,,,413.69037453200144,34,cars-116.jpg,,AC,1,vpnl,2023-11-16_20h52.54.533,midbabyloc,2023.2.2,60.250619925799334,
,,,,,,,,,414.1916063249955,34,cars-117.jpg,,AC,1,vpnl,2023-11-16_20h52.54.533,midbabyloc,2023.2.2,60.250619925799334,
,,,,,,,,,414.69049381699006,34,cars-118.jpg,,AC,1,vpnl,2023-11-16_20h52.54.533,midbabyloc,2023.2.2,60.250619925799334,
,,,,,,,,,415.1905103280005,34,cars-119.jpg,,AC,1,vpnl,2023-11-16_20h52.54.533,midbabyloc,2023.2.2,60.250619925799334,
,,,,,,,,,415.6902489599888,34,cars-120.jpg,,AC,1,vpnl,2023-11-16_20h52.54.533,midbabyloc,2023.2.2,60.250619925799334,
,,,,,,,,,416.1904361969937,35,blank-121.jpg,,AC,1,vpnl,2023-11-16_20h52.54.533,midbabyloc,2023.2.2,60.250619925799334,
,,,,,,,,,416.690336774991,35,blank-122.jpg,,AC,1,vpnl,2023-11-16_20h52.54.533,midbabyloc,2023.2.2,60.250619925799334,
,,,,,,,,,417.19035016398993,35,blank-123.jpg,,AC,1,vpnl,2023-11-16_20h52.54.533,midbabyloc,2023.2.2,60.250619925799334,
,,,,,,,,,417.6904057369975,35,blank-124.jpg,,AC,1,vpnl,2023-11-16_20h52.54.533,midbabyloc,2023.2.2,60.250619925799334,
,,,,,,,,,418.190315912987,35,blank-125.jpg,,AC,1,vpnl,2023-11-16_20h52.54.533,midbabyloc,2023.2.2,60.250619925799334,
,,,,,,,,,418.690242673998,35,blank-126.jpg,,AC,1,vpnl,2023-11-16_20h52.54.533,midbabyloc,2023.2.2,60.250619925799334,
,,,,,,,,,419.1903320269921,35,blank-127.jpg,,AC,1,vpnl,2023-11-16_20h52.54.533,midbabyloc,2023.2.2,60.250619925799334,
,,,,,,,,,419.6902688939881,35,blank-128.jpg,,AC,1,vpnl,2023-11-16_20h52.54.533,midbabyloc,2023.2.2,60.250619925799334,
,,,,,,,,,420.19012157699035,36,scenes-113.jpg,,AC,1,vpnl,2023-11-16_20h52.54.533,midbabyloc,2023.2.2,60.250619925799334,
,,,,,,,,,420.69027880700014,36,scenes-114.jpg,,AC,1,vpnl,2023-11-16_20h52.54.533,midbabyloc,2023.2.2,60.250619925799334,
,,,,,,,,,421.1902163409977,36,scenes-115.jpg,,AC,1,vpnl,2023-11-16_20h52.54.533,midbabyloc,2023.2.2,60.250619925799334,
,,,,,,,,,421.6901541260013,36,scenes-116.jpg,,AC,1,vpnl,2023-11-16_20h52.54.533,midbabyloc,2023.2.2,60.250619925799334,
,,,,,,,,,422.19029421699815,36,scenes-117.jpg,,AC,1,vpnl,2023-11-16_20h52.54.533,midbabyloc,2023.2.2,60.250619925799334,
,,,,,,,,,422.6901735749998,36,scenes-118.jpg,,AC,1,vpnl,2023-11-16_20h52.54.533,midbabyloc,2023.2.2,60.250619925799334,
,,,,,,,,,423.1902195319999,36,scenes-119.jpg,,AC,1,vpnl,2023-11-16_20h52.54.533,midbabyloc,2023.2.2,60.250619925799334,
,,,,,,,,,423.6903043319908,36,scenes-120.jpg,,AC,1,vpnl,2023-11-16_20h52.54.533,midbabyloc,2023.2.2,60.250619925799334,
,,,,,,,,,424.1901241089945,37,faces-121.jpg,,AC,1,vpnl,2023-11-16_20h52.54.533,midbabyloc,2023.2.2,60.250619925799334,
,,,,,,,,,424.69046587200137,37,faces-122.jpg,,AC,1,vpnl,2023-11-16_20h52.54.533,midbabyloc,2023.2.2,60.250619925799334,
,,,,,,,,,425.19057289799093,37,faces-123.jpg,,AC,1,vpnl,2023-11-16_20h52.54.533,midbabyloc,2023.2.2,60.250619925799334,
,,,,,,,,,425.69017549799173,37,faces-124.jpg,,AC,1,vpnl,2023-11-16_20h52.54.533,midbabyloc,2023.2.2,60.250619925799334,
,,,,,,,,,426.1900597109925,37,faces-125.jpg,,AC,1,vpnl,2023-11-16_20h52.54.533,midbabyloc,2023.2.2,60.250619925799334,
,,,,,,,,,426.69012551099877,37,faces-126.jpg,,AC,1,vpnl,2023-11-16_20h52.54.533,midbabyloc,2023.2.2,60.250619925799334,
,,,,,,,,,427.19016783099505,37,faces-127.jpg,,AC,1,vpnl,2023-11-16_20h52.54.533,midbabyloc,2023.2.2,60.250619925799334,
,,,,,,,,,427.6901385689998,37,faces-128.jpg,,AC,1,vpnl,2023-11-16_20h52.54.533,midbabyloc,2023.2.2,60.250619925799334,
,,,,,,,,,428.19008070998825,38,cars-121.jpg,,AC,1,vpnl,2023-11-16_20h52.54.533,midbabyloc,2023.2.2,60.250619925799334,
,,,,,,,,,428.6902598729939,38,cars-122.jpg,,AC,1,vpnl,2023-11-16_20h52.54.533,midbabyloc,2023.2.2,60.250619925799334,
,,,,,,,,,429.18992729499587,38,cars-123.jpg,,AC,1,vpnl,2023-11-16_20h52.54.533,midbabyloc,2023.2.2,60.250619925799334,
,,,,,,,,,429.6900252209889,38,cars-124.jpg,,AC,1,vpnl,2023-11-16_20h52.54.533,midbabyloc,2023.2.2,60.250619925799334,
,,,,,,,,,430.1899547029898,38,cars-125.jpg,,AC,1,vpnl,2023-11-16_20h52.54.533,midbabyloc,2023.2.2,60.250619925799334,
,,,,,,,,,430.689965114987,38,cars-126.jpg,,AC,1,vpnl,2023-11-16_20h52.54.533,midbabyloc,2023.2.2,60.250619925799334,
,,,,,,,,,431.19005204598943,38,cars-127.jpg,,AC,1,vpnl,2023-11-16_20h52.54.533,midbabyloc,2023.2.2,60.250619925799334,
,,,,,,,,,431.68992170300044,38,cars-128.jpg,,AC,1,vpnl,2023-11-16_20h52.54.533,midbabyloc,2023.2.2,60.250619925799334,
,,,,,,,,,432.19022424399736,39,hands-121.jpg,,AC,1,vpnl,2023-11-16_20h52.54.533,midbabyloc,2023.2.2,60.250619925799334,
,,,,,,,,,432.6899547649955,39,hands-122.jpg,,AC,1,vpnl,2023-11-16_20h52.54.533,midbabyloc,2023.2.2,60.250619925799334,
,,,,,,,,,433.18999421899207,39,hands-123.jpg,,AC,1,vpnl,2023-11-16_20h52.54.533,midbabyloc,2023.2.2,60.250619925799334,
,,,,,,,,,433.6899540119921,39,hands-124.jpg,,AC,1,vpnl,2023-11-16_20h52.54.533,midbabyloc,2023.2.2,60.250619925799334,
,,,,,,,,,434.18990131698956,39,hands-125.jpg,,AC,1,vpnl,2023-11-16_20h52.54.533,midbabyloc,2023.2.2,60.250619925799334,
,,,,,,,,,434.6900385029876,39,hands-126.jpg,,AC,1,vpnl,2023-11-16_20h52.54.533,midbabyloc,2023.2.2,60.250619925799334,
,,,,,,,,,435.18991147799534,39,hands-127.jpg,,AC,1,vpnl,2023-11-16_20h52.54.533,midbabyloc,2023.2.2,60.250619925799334,
,,,,,,,,,435.6899893809896,39,hands-128.jpg,,AC,1,vpnl,2023-11-16_20h52.54.533,midbabyloc,2023.2.2,60.250619925799334,
,,,,,,,,,436.1899749879958,40,scenes-121.jpg,,AC,1,vpnl,2023-11-16_20h52.54.533,midbabyloc,2023.2.2,60.250619925799334,
,,,,,,,,,436.6898774069996,40,scenes-122.jpg,,AC,1,vpnl,2023-11-16_20h52.54.533,midbabyloc,2023.2.2,60.250619925799334,
,,,,,,,,,437.1898636739934,40,scenes-123.jpg,,AC,1,vpnl,2023-11-16_20h52.54.533,midbabyloc,2023.2.2,60.250619925799334,
,,,,,,,,,437.68977323299623,40,scenes-124.jpg,,AC,1,vpnl,2023-11-16_20h52.54.533,midbabyloc,2023.2.2,60.250619925799334,
,,,,,,,,,438.1899640469928,40,scenes-125.jpg,,AC,1,vpnl,2023-11-16_20h52.54.533,midbabyloc,2023.2.2,60.250619925799334,
,,,,,,,,,438.6898863940005,40,scenes-126.jpg,,AC,1,vpnl,2023-11-16_20h52.54.533,midbabyloc,2023.2.2,60.250619925799334,
,,,,,,,,,439.18978351198894,40,scenes-127.jpg,,AC,1,vpnl,2023-11-16_20h52.54.533,midbabyloc,2023.2.2,60.250619925799334,
,,,,,,,,,439.68985955699463,40,scenes-128.jpg,,AC,1,vpnl,2023-11-16_20h52.54.533,midbabyloc,2023.2.2,60.250619925799334,
,,,,,,,,,440.189870022994,41,blank-129.jpg,,AC,1,vpnl,2023-11-16_20h52.54.533,midbabyloc,2023.2.2,60.250619925799334,
,,,,,,,,,440.68974284599244,41,blank-130.jpg,,AC,1,vpnl,2023-11-16_20h52.54.533,midbabyloc,2023.2.2,60.250619925799334,
,,,,,,,,,441.1898524399876,41,blank-131.jpg,,AC,1,vpnl,2023-11-16_20h52.54.533,midbabyloc,2023.2.2,60.250619925799334,
,,,,,,,,,441.68984591298795,41,blank-132.jpg,,AC,1,vpnl,2023-11-16_20h52.54.533,midbabyloc,2023.2.2,60.250619925799334,
,,,,,,,,,442.18982576899,41,blank-133.jpg,,AC,1,vpnl,2023-11-16_20h52.54.533,midbabyloc,2023.2.2,60.250619925799334,
,,,,,,,,,442.6897858789889,41,blank-134.jpg,,AC,1,vpnl,2023-11-16_20h52.54.533,midbabyloc,2023.2.2,60.250619925799334,
,,,,,,,,,443.1896623629873,41,blank-135.jpg,,AC,1,vpnl,2023-11-16_20h52.54.533,midbabyloc,2023.2.2,60.250619925799334,
,,,,,,,,,443.68979361599486,41,blank-136.jpg,,AC,1,vpnl,2023-11-16_20h52.54.533,midbabyloc,2023.2.2,60.250619925799334,
,,,,,,,,,444.1898002809903,42,blank-137.jpg,,AC,1,vpnl,2023-11-16_20h52.54.533,midbabyloc,2023.2.2,60.250619925799334,
,,,,,,,,,444.6897085949895,42,blank-138.jpg,,AC,1,vpnl,2023-11-16_20h52.54.533,midbabyloc,2023.2.2,60.250619925799334,
,,,,,,,,,445.1898119969992,42,blank-139.jpg,,AC,1,vpnl,2023-11-16_20h52.54.533,midbabyloc,2023.2.2,60.250619925799334,
,,,,,,,,,445.6898310909892,42,blank-140.jpg,,AC,1,vpnl,2023-11-16_20h52.54.533,midbabyloc,2023.2.2,60.250619925799334,
,,,,,,,,,446.1898330949916,42,blank-141.jpg,,AC,1,vpnl,2023-11-16_20h52.54.533,midbabyloc,2023.2.2,60.250619925799334,
,,,,,,,,,446.68976483598817,42,blank-142.jpg,,AC,1,vpnl,2023-11-16_20h52.54.533,midbabyloc,2023.2.2,60.250619925799334,
,,,,,,,,,447.189952293993,42,blank-143.jpg,,AC,1,vpnl,2023-11-16_20h52.54.533,midbabyloc,2023.2.2,60.250619925799334,
,,,,,,,,,447.6897704019939,42,blank-144.jpg,,AC,1,vpnl,2023-11-16_20h52.54.533,midbabyloc,2023.2.2,60.250619925799334,
