thisRow.t,notes,waiting_for_trigger_text.started,trigger.started,trigger.keys,trigger.rt,countdown.started,trial.stopped,stimuli.started,condition,stim_name,stimuli.stopped,participant,run,user,date,expName,psychopyVersion,frameRate,
,,32.20820346499386,32.20820346499386,t,20.57718731999921,,,,,,,AC,1,vpnl,2023-11-16_20h52.54.533,midbabyloc,2023.2.2,60.250619925799334,
,,,,,,52.82201175799128,26.62125486700097,58.83467037999071,1,blank-1.jpg,,AC,1,vpnl,2023-11-16_20h52.54.533,midbabyloc,2023.2.2,60.250619925799334,
,,,,,,,,59.33466534399486,1,blank-2.jpg,,AC,1,vpnl,2023-11-16_20h52.54.533,midbabyloc,2023.2.2,60.250619925799334,
,,,,,,,,59.83344971299812,1,blank-3.jpg,,AC,1,vpnl,2023-11-16_20h52.54.533,midbabyloc,2023.2.2,60.250619925799334,
,,,,,,,,60.333807060000254,1,blank-4.jpg,,AC,1,vpnl,2023-11-16_20h52.54.533,midbabyloc,2023.2.2,60.250619925799334,
,,,,,,,,60.83539742499124,1,blank-5.jpg,,AC,1,vpnl,2023-11-16_20h52.54.533,midbabyloc,2023.2.2,60.250619925799334,
,,,,,,,,61.334255690991995,1,blank-6.jpg,,AC,1,vpnl,2023-11-16_20h52.54.533,midbabyloc,2023.2.2,60.250619925799334,
,,,,,,,,61.83250659999612,1,blank-7.jpg,,AC,1,vpnl,2023-11-16_20h52.54.533,midbabyloc,2023.2.2,60.250619925799334,
,,,,,,,,62.3336822049896,1,blank-8.jpg,,AC,1,vpnl,2023-11-16_20h52.54.533,midbabyloc,2023.2.2,60.250619925799334,
,,,,,,,,62.8312874109979,2,hands-1.jpg,,AC,1,vpnl,2023-11-16_20h52.54.533,midbabyloc,2023.2.2,60.250619925799334,
,,,,,,,,63.33131721899554,2,hands-2.jpg,,AC,1,vpnl,2023-11-16_20h52.54.533,midbabyloc,2023.2.2,60.250619925799334,
,,,,,,,,63.831384543998865,2,hands-3.jpg,,AC,1,vpnl,2023-11-16_20h52.54.533,midbabyloc,2023.2.2,60.250619925799334,
,,,,,,,,64.33152630100085,2,hands-4.jpg,,AC,1,vpnl,2023-11-16_20h52.54.533,midbabyloc,2023.2.2,60.250619925799334,
,,,,,,,,64.83140650000132,2,hands-5.jpg,,AC,1,vpnl,2023-11-16_20h52.54.533,midbabyloc,2023.2.2,60.250619925799334,
,,,,,,,,65.33157148800092,2,hands-6.jpg,,AC,1,vpnl,2023-11-16_20h52.54.533,midbabyloc,2023.2.2,60.250619925799334,
,,,,,,,,65.83148656399862,2,hands-7.jpg,,AC,1,vpnl,2023-11-16_20h52.54.533,midbabyloc,2023.2.2,60.250619925799334,
,,,,,,,,66.33082789399487,2,hands-8.jpg,,AC,1,vpnl,2023-11-16_20h52.54.533,midbabyloc,2023.2.2,60.250619925799334,
,,,,,,,,66.83111148099124,3,cars-1.jpg,,AC,1,vpnl,2023-11-16_20h52.54.533,midbabyloc,2023.2.2,60.250619925799334,
,,,,,,,,67.33126139298838,3,cars-2.jpg,,AC,1,vpnl,2023-11-16_20h52.54.533,midbabyloc,2023.2.2,60.250619925799334,
,,,,,,,,67.83152338399668,3,cars-3.jpg,,AC,1,vpnl,2023-11-16_20h52.54.533,midbabyloc,2023.2.2,60.250619925799334,
,,,,,,,,68.33108937898942,3,cars-4.jpg,,AC,1,vpnl,2023-11-16_20h52.54.533,midbabyloc,2023.2.2,60.250619925799334,
,,,,,,,,68.83141003399214,3,cars-5.jpg,,AC,1,vpnl,2023-11-16_20h52.54.533,midbabyloc,2023.2.2,60.250619925799334,
,,,,,,,,69.33133188298962,3,cars-6.jpg,,AC,1,vpnl,2023-11-16_20h52.54.533,midbabyloc,2023.2.2,60.250619925799334,
,,,,,,,,69.83131641999353,3,cars-7.jpg,,AC,1,vpnl,2023-11-16_20h52.54.533,midbabyloc,2023.2.2,60.250619925799334,
,,,,,,,,70.33146464898891,3,cars-8.jpg,,AC,1,vpnl,2023-11-16_20h52.54.533,midbabyloc,2023.2.2,60.250619925799334,
,,,,,,,,70.83157485599804,4,scenes-1.jpg,,AC,1,vpnl,2023-11-16_20h52.54.533,midbabyloc,2023.2.2,60.250619925799334,
,,,,,,,,71.33430553998915,4,scenes-2.jpg,,AC,1,vpnl,2023-11-16_20h52.54.533,midbabyloc,2023.2.2,60.250619925799334,
,,,,,,,,71.83135053799197,4,scenes-3.jpg,,AC,1,vpnl,2023-11-16_20h52.54.533,midbabyloc,2023.2.2,60.250619925799334,
,,,,,,,,72.33085460799339,4,scenes-4.jpg,,AC,1,vpnl,2023-11-16_20h52.54.533,midbabyloc,2023.2.2,60.250619925799334,
,,,,,,,,72.83108658599667,4,scenes-5.jpg,,AC,1,vpnl,2023-11-16_20h52.54.533,midbabyloc,2023.2.2,60.250619925799334,
,,,,,,,,73.33010958498926,4,scenes-6.jpg,,AC,1,vpnl,2023-11-16_20h52.54.533,midbabyloc,2023.2.2,60.250619925799334,
,,,,,,,,73.83100862200081,4,scenes-7.jpg,,AC,1,vpnl,2023-11-16_20h52.54.533,midbabyloc,2023.2.2,60.250619925799334,
,,,,,,,,74.33143056299014,4,scenes-8.jpg,,AC,1,vpnl,2023-11-16_20h52.54.533,midbabyloc,2023.2.2,60.250619925799334,
,,,,,,,,74.83152299499488,5,faces-1.jpg,,AC,1,vpnl,2023-11-16_20h52.54.533,midbabyloc,2023.2.2,60.250619925799334,
,,,,,,,,75.33148022698879,5,faces-2.jpg,,AC,1,vpnl,2023-11-16_20h52.54.533,midbabyloc,2023.2.2,60.250619925799334,
,,,,,,,,75.83025811899279,5,faces-3.jpg,,AC,1,vpnl,2023-11-16_20h52.54.533,midbabyloc,2023.2.2,60.250619925799334,
,,,,,,,,76.33035026799189,5,faces-4.jpg,,AC,1,vpnl,2023-11-16_20h52.54.533,midbabyloc,2023.2.2,60.250619925799334,
,,,,,,,,76.83035526999447,5,faces-5.jpg,,AC,1,vpnl,2023-11-16_20h52.54.533,midbabyloc,2023.2.2,60.250619925799334,
,,,,,,,,77.33020209798997,5,faces-6.jpg,,AC,1,vpnl,2023-11-16_20h52.54.533,midbabyloc,2023.2.2,60.250619925799334,
,,,,,,,,77.83128930800012,5,faces-7.jpg,,AC,1,vpnl,2023-11-16_20h52.54.533,midbabyloc,2023.2.2,60.250619925799334,
,,,,,,,,78.33103930699872,5,faces-8.jpg,,AC,1,vpnl,2023-11-16_20h52.54.533,midbabyloc,2023.2.2,60.250619925799334,
,,,,,,,,78.83116701799736,6,blank-9.jpg,,AC,1,vpnl,2023-11-16_20h52.54.533,midbabyloc,2023.2.2,60.250619925799334,
,,,,,,,,79.33001002599485,6,blank-10.jpg,,AC,1,vpnl,2023-11-16_20h52.54.533,midbabyloc,2023.2.2,60.250619925799334,
,,,,,,,,79.83108194998931,6,blank-11.jpg,,AC,1,vpnl,2023-11-16_20h52.54.533,midbabyloc,2023.2.2,60.250619925799334,
,,,,,,,,80.33084492699709,6,blank-12.jpg,,AC,1,vpnl,2023-11-16_20h52.54.533,midbabyloc,2023.2.2,60.250619925799334,
,,,,,,,,80.83138785698975,6,blank-13.jpg,,AC,1,vpnl,2023-11-16_20h52.54.533,midbabyloc,2023.2.2,60.250619925799334,
,,,,,,,,81.33110377399134,6,blank-14.jpg,,AC,1,vpnl,2023-11-16_20h52.54.533,midbabyloc,2023.2.2,60.250619925799334,
,,,,,,,,81.82998234599654,6,blank-15.jpg,,AC,1,vpnl,2023-11-16_20h52.54.533,midbabyloc,2023.2.2,60.250619925799334,
,,,,,,,,82.32983284498914,6,blank-16.jpg,,AC,1,vpnl,2023-11-16_20h52.54.533,midbabyloc,2023.2.2,60.250619925799334,
,,,,,,,,82.83104807999916,7,faces-9.jpg,,AC,1,vpnl,2023-11-16_20h52.54.533,midbabyloc,2023.2.2,60.250619925799334,
,,,,,,,,83.32989703099884,7,faces-10.jpg,,AC,1,vpnl,2023-11-16_20h52.54.533,midbabyloc,2023.2.2,60.250619925799334,
,,,,,,,,83.83114095999917,7,faces-11.jpg,,AC,1,vpnl,2023-11-16_20h52.54.533,midbabyloc,2023.2.2,60.250619925799334,
,,,,,,,,84.33104433199333,7,faces-12.jpg,,AC,1,vpnl,2023-11-16_20h52.54.533,midbabyloc,2023.2.2,60.250619925799334,
,,,,,,,,84.83007290298701,7,faces-13.jpg,,AC,1,vpnl,2023-11-16_20h52.54.533,midbabyloc,2023.2.2,60.250619925799334,
,,,,,,,,85.3308771459997,7,faces-14.jpg,,AC,1,vpnl,2023-11-16_20h52.54.533,midbabyloc,2023.2.2,60.250619925799334,
,,,,,,,,85.82967392700084,7,faces-15.jpg,,AC,1,vpnl,2023-11-16_20h52.54.533,midbabyloc,2023.2.2,60.250619925799334,
,,,,,,,,86.33117337898875,7,faces-16.jpg,,AC,1,vpnl,2023-11-16_20h52.54.533,midbabyloc,2023.2.2,60.250619925799334,
,,,,,,,,86.83106242699432,8,blank-17.jpg,,AC,1,vpnl,2023-11-16_20h52.54.533,midbabyloc,2023.2.2,60.250619925799334,
,,,,,,,,87.33084235199203,8,blank-18.jpg,,AC,1,vpnl,2023-11-16_20h52.54.533,midbabyloc,2023.2.2,60.250619925799334,
,,,,,,,,87.83097920200089,8,blank-19.jpg,,AC,1,vpnl,2023-11-16_20h52.54.533,midbabyloc,2023.2.2,60.250619925799334,
,,,,,,,,88.33098953099397,8,blank-20.jpg,,AC,1,vpnl,2023-11-16_20h52.54.533,midbabyloc,2023.2.2,60.250619925799334,
,,,,,,,,88.83006172299793,8,blank-21.jpg,,AC,1,vpnl,2023-11-16_20h52.54.533,midbabyloc,2023.2.2,60.250619925799334,
,,,,,,,,89.32961996299855,8,blank-22.jpg,,AC,1,vpnl,2023-11-16_20h52.54.533,midbabyloc,2023.2.2,60.250619925799334,
,,,,,,,,89.83004908499424,8,blank-23.jpg,,AC,1,vpnl,2023-11-16_20h52.54.533,midbabyloc,2023.2.2,60.250619925799334,
,,,,,,,,90.33094663098746,8,blank-24.jpg,,AC,1,vpnl,2023-11-16_20h52.54.533,midbabyloc,2023.2.2,60.250619925799334,
,,,,,,,,90.82965326900012,9,cars-9.jpg,,AC,1,vpnl,2023-11-16_20h52.54.533,midbabyloc,2023.2.2,60.250619925799334,
,,,,,,,,91.33099875999324,9,cars-10.jpg,,AC,1,vpnl,2023-11-16_20h52.54.533,midbabyloc,2023.2.2,60.250619925799334,
,,,,,,,,91.83025702399027,9,cars-11.jpg,,AC,1,vpnl,2023-11-16_20h52.54.533,midbabyloc,2023.2.2,60.250619925799334,
,,,,,,,,92.33069786499254,9,cars-12.jpg,,AC,1,vpnl,2023-11-16_20h52.54.533,midbabyloc,2023.2.2,60.250619925799334,
,,,,,,,,92.83056106699223,9,cars-13.jpg,,AC,1,vpnl,2023-11-16_20h52.54.533,midbabyloc,2023.2.2,60.250619925799334,
,,,,,,,,93.33078765199753,9,cars-14.jpg,,AC,1,vpnl,2023-11-16_20h52.54.533,midbabyloc,2023.2.2,60.250619925799334,
,,,,,,,,93.82971134099353,9,cars-15.jpg,,AC,1,vpnl,2023-11-16_20h52.54.533,midbabyloc,2023.2.2,60.250619925799334,
,,,,,,,,94.32962182399933,9,cars-16.jpg,,AC,1,vpnl,2023-11-16_20h52.54.533,midbabyloc,2023.2.2,60.250619925799334,
,,,,,,,,94.83012392699311,10,hands-9.jpg,,AC,1,vpnl,2023-11-16_20h52.54.533,midbabyloc,2023.2.2,60.250619925799334,
,,,,,,,,95.33423326798948,10,hands-10.jpg,,AC,1,vpnl,2023-11-16_20h52.54.533,midbabyloc,2023.2.2,60.250619925799334,
,,,,,,,,95.83270918599737,10,hands-11.jpg,,AC,1,vpnl,2023-11-16_20h52.54.533,midbabyloc,2023.2.2,60.250619925799334,
,,,,,,,,96.33032380699296,10,hands-12.jpg,,AC,1,vpnl,2023-11-16_20h52.54.533,midbabyloc,2023.2.2,60.250619925799334,
,,,,,,,,96.83060903899604,10,hands-13.jpg,,AC,1,vpnl,2023-11-16_20h52.54.533,midbabyloc,2023.2.2,60.250619925799334,
,,,,,,,,97.33082787798776,10,hands-14.jpg,,AC,1,vpnl,2023-11-16_20h52.54.533,midbabyloc,2023.2.2,60.250619925799334,
,,,,,,,,97.830969431001,10,hands-15.jpg,,AC,1,vpnl,2023-11-16_20h52.54.533,midbabyloc,2023.2.2,60.250619925799334,
,,,,,,,,98.33097971198731,10,hands-16.jpg,,AC,1,vpnl,2023-11-16_20h52.54.533,midbabyloc,2023.2.2,60.250619925799334,
,,,,,,,,98.82970217399998,11,scenes-9.jpg,,AC,1,vpnl,2023-11-16_20h52.54.533,midbabyloc,2023.2.2,60.250619925799334,
,,,,,,,,99.3294840289891,11,scenes-10.jpg,,AC,1,vpnl,2023-11-16_20h52.54.533,midbabyloc,2023.2.2,60.250619925799334,
,,,,,,,,99.83068915898912,11,scenes-11.jpg,,AC,1,vpnl,2023-11-16_20h52.54.533,midbabyloc,2023.2.2,60.250619925799334,
,,,,,,,,100.33060658999602,11,scenes-12.jpg,,AC,1,vpnl,2023-11-16_20h52.54.533,midbabyloc,2023.2.2,60.250619925799334,
,,,,,,,,100.82944795899675,11,scenes-13.jpg,,AC,1,vpnl,2023-11-16_20h52.54.533,midbabyloc,2023.2.2,60.250619925799334,
,,,,,,,,101.33418694099237,11,scenes-14.jpg,,AC,1,vpnl,2023-11-16_20h52.54.533,midbabyloc,2023.2.2,60.250619925799334,
,,,,,,,,101.83051702599914,11,scenes-15.jpg,,AC,1,vpnl,2023-11-16_20h52.54.533,midbabyloc,2023.2.2,60.250619925799334,
,,,,,,,,102.3300057460001,11,scenes-16.jpg,,AC,1,vpnl,2023-11-16_20h52.54.533,midbabyloc,2023.2.2,60.250619925799334,
,,,,,,,,102.83050776699383,12,hands-17.jpg,,AC,1,vpnl,2023-11-16_20h52.54.533,midbabyloc,2023.2.2,60.250619925799334,
,,,,,,,,103.33081479500106,12,hands-18.jpg,,AC,1,vpnl,2023-11-16_20h52.54.533,midbabyloc,2023.2.2,60.250619925799334,
,,,,,,,,103.8305120899895,12,hands-19.jpg,,AC,1,vpnl,2023-11-16_20h52.54.533,midbabyloc,2023.2.2,60.250619925799334,
,,,,,,,,104.33080531099404,12,hands-20.jpg,,AC,1,vpnl,2023-11-16_20h52.54.533,midbabyloc,2023.2.2,60.250619925799334,
,,,,,,,,104.82993513099791,12,hands-21.jpg,,AC,1,vpnl,2023-11-16_20h52.54.533,midbabyloc,2023.2.2,60.250619925799334,
,,,,,,,,105.33098127499397,12,hands-22.jpg,,AC,1,vpnl,2023-11-16_20h52.54.533,midbabyloc,2023.2.2,60.250619925799334,
,,,,,,,,105.8297381149896,12,hands-23.jpg,,AC,1,vpnl,2023-11-16_20h52.54.533,midbabyloc,2023.2.2,60.250619925799334,
,,,,,,,,106.32961334798892,12,hands-24.jpg,,AC,1,vpnl,2023-11-16_20h52.54.533,midbabyloc,2023.2.2,60.250619925799334,
,,,,,,,,106.83076855599938,13,faces-17.jpg,,AC,1,vpnl,2023-11-16_20h52.54.533,midbabyloc,2023.2.2,60.250619925799334,
,,,,,,,,107.33090503499261,13,faces-18.jpg,,AC,1,vpnl,2023-11-16_20h52.54.533,midbabyloc,2023.2.2,60.250619925799334,
,,,,,,,,107.8308510309871,13,faces-19.jpg,,AC,1,vpnl,2023-11-16_20h52.54.533,midbabyloc,2023.2.2,60.250619925799334,
,,,,,,,,108.32949450999149,13,faces-20.jpg,,AC,1,vpnl,2023-11-16_20h52.54.533,midbabyloc,2023.2.2,60.250619925799334,
,,,,,,,,108.82932572999562,13,faces-21.jpg,,AC,1,vpnl,2023-11-16_20h52.54.533,midbabyloc,2023.2.2,60.250619925799334,
,,,,,,,,109.32967072699103,13,faces-22.jpg,,AC,1,vpnl,2023-11-16_20h52.54.533,midbabyloc,2023.2.2,60.250619925799334,
,,,,,,,,109.83046016799926,13,faces-23.jpg,,AC,1,vpnl,2023-11-16_20h52.54.533,midbabyloc,2023.2.2,60.250619925799334,
,,,,,,,,110.32926731799671,13,faces-24.jpg,,AC,1,vpnl,2023-11-16_20h52.54.533,midbabyloc,2023.2.2,60.250619925799334,
,,,,,,,,110.8321061989991,14,cars-17.jpg,,AC,1,vpnl,2023-11-16_20h52.54.533,midbabyloc,2023.2.2,60.250619925799334,
,,,,,,,,111.3303520509944,14,cars-18.jpg,,AC,1,vpnl,2023-11-16_20h52.54.533,midbabyloc,2023.2.2,60.250619925799334,
,,,,,,,,111.82948813799885,14,cars-19.jpg,,AC,1,vpnl,2023-11-16_20h52.54.533,midbabyloc,2023.2.2,60.250619925799334,
,,,,,,,,112.32951838799636,14,cars-20.jpg,,AC,1,vpnl,2023-11-16_20h52.54.533,midbabyloc,2023.2.2,60.250619925799334,
,,,,,,,,112.83049574498727,14,cars-21.jpg,,AC,1,vpnl,2023-11-16_20h52.54.533,midbabyloc,2023.2.2,60.250619925799334,
,,,,,,,,113.33050128999457,14,cars-22.jpg,,AC,1,vpnl,2023-11-16_20h52.54.533,midbabyloc,2023.2.2,60.250619925799334,
,,,,,,,,113.83036408499174,14,cars-23.jpg,,AC,1,vpnl,2023-11-16_20h52.54.533,midbabyloc,2023.2.2,60.250619925799334,
,,,,,,,,114.330228212988,14,cars-24.jpg,,AC,1,vpnl,2023-11-16_20h52.54.533,midbabyloc,2023.2.2,60.250619925799334,
,,,,,,,,114.8297501099878,15,scenes-17.jpg,,AC,1,vpnl,2023-11-16_20h52.54.533,midbabyloc,2023.2.2,60.250619925799334,
,,,,,,,,115.33393035498739,15,scenes-18.jpg,,AC,1,vpnl,2023-11-16_20h52.54.533,midbabyloc,2023.2.2,60.250619925799334,
,,,,,,,,115.83245547198749,15,scenes-19.jpg,,AC,1,vpnl,2023-11-16_20h52.54.533,midbabyloc,2023.2.2,60.250619925799334,
,,,,,,,,116.32946162699955,15,scenes-20.jpg,,AC,1,vpnl,2023-11-16_20h52.54.533,midbabyloc,2023.2.2,60.250619925799334,
,,,,,,,,116.83040233599604,15,scenes-21.jpg,,AC,1,vpnl,2023-11-16_20h52.54.533,midbabyloc,2023.2.2,60.250619925799334,
,,,,,,,,117.33071667799959,15,scenes-22.jpg,,AC,1,vpnl,2023-11-16_20h52.54.533,midbabyloc,2023.2.2,60.250619925799334,
,,,,,,,,117.83016319898888,15,scenes-23.jpg,,AC,1,vpnl,2023-11-16_20h52.54.533,midbabyloc,2023.2.2,60.250619925799334,
,,,,,,,,118.33009292799397,15,scenes-24.jpg,,AC,1,vpnl,2023-11-16_20h52.54.533,midbabyloc,2023.2.2,60.250619925799334,
,,,,,,,,118.83035361699876,16,blank-25.jpg,,AC,1,vpnl,2023-11-16_20h52.54.533,midbabyloc,2023.2.2,60.250619925799334,
,,,,,,,,119.32946229400113,16,blank-26.jpg,,AC,1,vpnl,2023-11-16_20h52.54.533,midbabyloc,2023.2.2,60.250619925799334,
,,,,,,,,119.83025704999454,16,blank-27.jpg,,AC,1,vpnl,2023-11-16_20h52.54.533,midbabyloc,2023.2.2,60.250619925799334,
,,,,,,,,120.32944436698745,16,blank-28.jpg,,AC,1,vpnl,2023-11-16_20h52.54.533,midbabyloc,2023.2.2,60.250619925799334,
,,,,,,,,120.82940726399829,16,blank-29.jpg,,AC,1,vpnl,2023-11-16_20h52.54.533,midbabyloc,2023.2.2,60.250619925799334,
,,,,,,,,121.33010176300013,16,blank-30.jpg,,AC,1,vpnl,2023-11-16_20h52.54.533,midbabyloc,2023.2.2,60.250619925799334,
,,,,,,,,121.81466390099376,16,blank-31.jpg,122.31264570599888,AC,1,vpnl,2023-11-16_20h52.54.533,midbabyloc,2023.2.2,60.250619925799334,
,,,,,,,,122.31264570599888,16,blank-32.jpg,122.81264803599333,AC,1,vpnl,2023-11-16_20h52.54.533,midbabyloc,2023.2.2,60.250619925799334,
,,,,,,,,122.81264803599333,17,faces-25.jpg,123.31252760598727,AC,1,vpnl,2023-11-16_20h52.54.533,midbabyloc,2023.2.2,60.250619925799334,
,,,,,,,,123.31252760598727,17,faces-26.jpg,123.81360057200072,AC,1,vpnl,2023-11-16_20h52.54.533,midbabyloc,2023.2.2,60.250619925799334,
,,,,,,,,123.81360057200072,17,faces-27.jpg,,AC,1,vpnl,2023-11-16_20h52.54.533,midbabyloc,2023.2.2,60.250619925799334,
,,,,,,,,124.32909606899193,17,faces-28.jpg,,AC,1,vpnl,2023-11-16_20h52.54.533,midbabyloc,2023.2.2,60.250619925799334,
,,,,,,,,124.82927730899246,17,faces-29.jpg,,AC,1,vpnl,2023-11-16_20h52.54.533,midbabyloc,2023.2.2,60.250619925799334,
,,,,,,,,125.32992462698894,17,faces-30.jpg,,AC,1,vpnl,2023-11-16_20h52.54.533,midbabyloc,2023.2.2,60.250619925799334,
,,,,,,,,125.82898677799676,17,faces-31.jpg,,AC,1,vpnl,2023-11-16_20h52.54.533,midbabyloc,2023.2.2,60.250619925799334,
,,,,,,,,126.32903756298765,17,faces-32.jpg,,AC,1,vpnl,2023-11-16_20h52.54.533,midbabyloc,2023.2.2,60.250619925799334,
,,,,,,,,126.83011578899459,18,blank-33.jpg,,AC,1,vpnl,2023-11-16_20h52.54.533,midbabyloc,2023.2.2,60.250619925799334,
,,,,,,,,127.32896763698955,18,blank-34.jpg,,AC,1,vpnl,2023-11-16_20h52.54.533,midbabyloc,2023.2.2,60.250619925799334,
,,,,,,,,127.82910725599504,18,blank-35.jpg,,AC,1,vpnl,2023-11-16_20h52.54.533,midbabyloc,2023.2.2,60.250619925799334,
,,,,,,,,128.3301094819908,18,blank-36.jpg,,AC,1,vpnl,2023-11-16_20h52.54.533,midbabyloc,2023.2.2,60.250619925799334,
,,,,,,,,128.8289575499948,18,blank-37.jpg,,AC,1,vpnl,2023-11-16_20h52.54.533,midbabyloc,2023.2.2,60.250619925799334,
,,,,,,,,129.3289411339938,18,blank-38.jpg,,AC,1,vpnl,2023-11-16_20h52.54.533,midbabyloc,2023.2.2,60.250619925799334,
,,,,,,,,129.8298059749941,18,blank-39.jpg,,AC,1,vpnl,2023-11-16_20h52.54.533,midbabyloc,2023.2.2,60.250619925799334,
,,,,,,,,130.32894712399866,18,blank-40.jpg,,AC,1,vpnl,2023-11-16_20h52.54.533,midbabyloc,2023.2.2,60.250619925799334,
,,,,,,,,130.82899316099065,19,hands-25.jpg,,AC,1,vpnl,2023-11-16_20h52.54.533,midbabyloc,2023.2.2,60.250619925799334,
,,,,,,,,131.32979158799571,19,hands-26.jpg,,AC,1,vpnl,2023-11-16_20h52.54.533,midbabyloc,2023.2.2,60.250619925799334,
,,,,,,,,131.8290971069946,19,hands-27.jpg,,AC,1,vpnl,2023-11-16_20h52.54.533,midbabyloc,2023.2.2,60.250619925799334,
,,,,,,,,132.3291368939972,19,hands-28.jpg,,AC,1,vpnl,2023-11-16_20h52.54.533,midbabyloc,2023.2.2,60.250619925799334,
,,,,,,,,132.82893368399527,19,hands-29.jpg,,AC,1,vpnl,2023-11-16_20h52.54.533,midbabyloc,2023.2.2,60.250619925799334,
,,,,,,,,133.329828558999,19,hands-30.jpg,,AC,1,vpnl,2023-11-16_20h52.54.533,midbabyloc,2023.2.2,60.250619925799334,
,,,,,,,,133.82998372300062,19,hands-31.jpg,,AC,1,vpnl,2023-11-16_20h52.54.533,midbabyloc,2023.2.2,60.250619925799334,
,,,,,,,,134.3296608429955,19,hands-32.jpg,,AC,1,vpnl,2023-11-16_20h52.54.533,midbabyloc,2023.2.2,60.250619925799334,
,,,,,,,,134.830017425993,20,scenes-25.jpg,,AC,1,vpnl,2023-11-16_20h52.54.533,midbabyloc,2023.2.2,60.250619925799334,
,,,,,,,,135.32966293299978,20,scenes-26.jpg,,AC,1,vpnl,2023-11-16_20h52.54.533,midbabyloc,2023.2.2,60.250619925799334,
,,,,,,,,135.83007486398856,20,scenes-27.jpg,,AC,1,vpnl,2023-11-16_20h52.54.533,midbabyloc,2023.2.2,60.250619925799334,
,,,,,,,,136.3299991729873,20,scenes-28.jpg,,AC,1,vpnl,2023-11-16_20h52.54.533,midbabyloc,2023.2.2,60.250619925799334,
,,,,,,,,136.83010813199508,20,scenes-29.jpg,,AC,1,vpnl,2023-11-16_20h52.54.533,midbabyloc,2023.2.2,60.250619925799334,
,,,,,,,,137.32987310099998,20,scenes-30.jpg,,AC,1,vpnl,2023-11-16_20h52.54.533,midbabyloc,2023.2.2,60.250619925799334,
,,,,,,,,137.83002305199625,20,scenes-31.jpg,,AC,1,vpnl,2023-11-16_20h52.54.533,midbabyloc,2023.2.2,60.250619925799334,
,,,,,,,,138.3296404829889,20,scenes-32.jpg,,AC,1,vpnl,2023-11-16_20h52.54.533,midbabyloc,2023.2.2,60.250619925799334,
,,,,,,,,138.82968663799693,21,cars-25.jpg,,AC,1,vpnl,2023-11-16_20h52.54.533,midbabyloc,2023.2.2,60.250619925799334,
,,,,,,,,139.32994140099618,21,cars-26.jpg,,AC,1,vpnl,2023-11-16_20h52.54.533,midbabyloc,2023.2.2,60.250619925799334,
,,,,,,,,139.8297838649887,21,cars-27.jpg,,AC,1,vpnl,2023-11-16_20h52.54.533,midbabyloc,2023.2.2,60.250619925799334,
,,,,,,,,140.3303015279962,21,cars-28.jpg,,AC,1,vpnl,2023-11-16_20h52.54.533,midbabyloc,2023.2.2,60.250619925799334,
,,,,,,,,140.82962759499787,21,cars-29.jpg,,AC,1,vpnl,2023-11-16_20h52.54.533,midbabyloc,2023.2.2,60.250619925799334,
,,,,,,,,141.32999786699656,21,cars-30.jpg,,AC,1,vpnl,2023-11-16_20h52.54.533,midbabyloc,2023.2.2,60.250619925799334,
,,,,,,,,141.83327267300047,21,cars-31.jpg,,AC,1,vpnl,2023-11-16_20h52.54.533,midbabyloc,2023.2.2,60.250619925799334,
,,,,,,,,142.32915262998722,21,cars-32.jpg,,AC,1,vpnl,2023-11-16_20h52.54.533,midbabyloc,2023.2.2,60.250619925799334,
,,,,,,,,142.82896447199164,22,blank-41.jpg,,AC,1,vpnl,2023-11-16_20h52.54.533,midbabyloc,2023.2.2,60.250619925799334,
,,,,,,,,143.32899612598703,22,blank-42.jpg,,AC,1,vpnl,2023-11-16_20h52.54.533,midbabyloc,2023.2.2,60.250619925799334,
,,,,,,,,143.8296398199891,22,blank-43.jpg,,AC,1,vpnl,2023-11-16_20h52.54.533,midbabyloc,2023.2.2,60.250619925799334,
,,,,,,,,144.32904691399017,22,blank-44.jpg,,AC,1,vpnl,2023-11-16_20h52.54.533,midbabyloc,2023.2.2,60.250619925799334,
,,,,,,,,144.82911000499735,22,blank-45.jpg,,AC,1,vpnl,2023-11-16_20h52.54.533,midbabyloc,2023.2.2,60.250619925799334,
,,,,,,,,145.32896152600006,22,blank-46.jpg,,AC,1,vpnl,2023-11-16_20h52.54.533,midbabyloc,2023.2.2,60.250619925799334,
,,,,,,,,145.8299508219934,22,blank-47.jpg,,AC,1,vpnl,2023-11-16_20h52.54.533,midbabyloc,2023.2.2,60.250619925799334,
,,,,,,,,146.3300400320004,22,blank-48.jpg,,AC,1,vpnl,2023-11-16_20h52.54.533,midbabyloc,2023.2.2,60.250619925799334,
,,,,,,,,146.83003459699103,23,faces-33.jpg,,AC,1,vpnl,2023-11-16_20h52.54.533,midbabyloc,2023.2.2,60.250619925799334,
,,,,,,,,147.32989205500053,23,faces-34.jpg,,AC,1,vpnl,2023-11-16_20h52.54.533,midbabyloc,2023.2.2,60.250619925799334,
,,,,,,,,147.8298549559986,23,faces-35.jpg,,AC,1,vpnl,2023-11-16_20h52.54.533,midbabyloc,2023.2.2,60.250619925799334,
,,,,,,,,148.32957508698746,23,faces-36.jpg,,AC,1,vpnl,2023-11-16_20h52.54.533,midbabyloc,2023.2.2,60.250619925799334,
,,,,,,,,148.8341864339891,23,faces-37.jpg,,AC,1,vpnl,2023-11-16_20h52.54.533,midbabyloc,2023.2.2,60.250619925799334,
,,,,,,,,149.3288328119961,23,faces-38.jpg,,AC,1,vpnl,2023-11-16_20h52.54.533,midbabyloc,2023.2.2,60.250619925799334,
,,,,,,,,149.82972287699522,23,faces-39.jpg,,AC,1,vpnl,2023-11-16_20h52.54.533,midbabyloc,2023.2.2,60.250619925799334,
,,,,,,,,150.32873488598852,23,faces-40.jpg,,AC,1,vpnl,2023-11-16_20h52.54.533,midbabyloc,2023.2.2,60.250619925799334,
,,,,,,,,150.82883352399222,24,cars-33.jpg,,AC,1,vpnl,2023-11-16_20h52.54.533,midbabyloc,2023.2.2,60.250619925799334,
,,,,,,,,151.32909451999876,24,cars-34.jpg,,AC,1,vpnl,2023-11-16_20h52.54.533,midbabyloc,2023.2.2,60.250619925799334,
,,,,,,,,151.8300599459908,24,cars-35.jpg,,AC,1,vpnl,2023-11-16_20h52.54.533,midbabyloc,2023.2.2,60.250619925799334,
,,,,,,,,152.32985711999936,24,cars-36.jpg,,AC,1,vpnl,2023-11-16_20h52.54.533,midbabyloc,2023.2.2,60.250619925799334,
,,,,,,,,152.82860031399468,24,cars-37.jpg,,AC,1,vpnl,2023-11-16_20h52.54.533,midbabyloc,2023.2.2,60.250619925799334,
,,,,,,,,153.3300486379885,24,cars-38.jpg,,AC,1,vpnl,2023-11-16_20h52.54.533,midbabyloc,2023.2.2,60.250619925799334,
,,,,,,,,153.82964050098963,24,cars-39.jpg,,AC,1,vpnl,2023-11-16_20h52.54.533,midbabyloc,2023.2.2,60.250619925799334,
,,,,,,,,154.3299774019979,24,cars-40.jpg,,AC,1,vpnl,2023-11-16_20h52.54.533,midbabyloc,2023.2.2,60.250619925799334,
,,,,,,,,154.82963618099166,25,hands-33.jpg,,AC,1,vpnl,2023-11-16_20h52.54.533,midbabyloc,2023.2.2,60.250619925799334,
,,,,,,,,155.32887036699685,25,hands-34.jpg,,AC,1,vpnl,2023-11-16_20h52.54.533,midbabyloc,2023.2.2,60.250619925799334,
,,,,,,,,155.82992154698877,25,hands-35.jpg,,AC,1,vpnl,2023-11-16_20h52.54.533,midbabyloc,2023.2.2,60.250619925799334,
,,,,,,,,156.32909079399542,25,hands-36.jpg,,AC,1,vpnl,2023-11-16_20h52.54.533,midbabyloc,2023.2.2,60.250619925799334,
,,,,,,,,156.8298226219922,25,hands-37.jpg,,AC,1,vpnl,2023-11-16_20h52.54.533,midbabyloc,2023.2.2,60.250619925799334,
,,,,,,,,157.32960477098823,25,hands-38.jpg,,AC,1,vpnl,2023-11-16_20h52.54.533,midbabyloc,2023.2.2,60.250619925799334,
,,,,,,,,157.82962234599108,25,hands-39.jpg,,AC,1,vpnl,2023-11-16_20h52.54.533,midbabyloc,2023.2.2,60.250619925799334,
,,,,,,,,158.32957604299008,25,hands-40.jpg,,AC,1,vpnl,2023-11-16_20h52.54.533,midbabyloc,2023.2.2,60.250619925799334,
,,,,,,,,158.8298444529937,26,scenes-33.jpg,,AC,1,vpnl,2023-11-16_20h52.54.533,midbabyloc,2023.2.2,60.250619925799334,
,,,,,,,,159.3298153020005,26,scenes-34.jpg,,AC,1,vpnl,2023-11-16_20h52.54.533,midbabyloc,2023.2.2,60.250619925799334,
,,,,,,,,159.82929253399197,26,scenes-35.jpg,,AC,1,vpnl,2023-11-16_20h52.54.533,midbabyloc,2023.2.2,60.250619925799334,
,,,,,,,,160.32950341299875,26,scenes-36.jpg,,AC,1,vpnl,2023-11-16_20h52.54.533,midbabyloc,2023.2.2,60.250619925799334,
,,,,,,,,160.82951149099972,26,scenes-37.jpg,,AC,1,vpnl,2023-11-16_20h52.54.533,midbabyloc,2023.2.2,60.250619925799334,
,,,,,,,,161.33037843399507,26,scenes-38.jpg,,AC,1,vpnl,2023-11-16_20h52.54.533,midbabyloc,2023.2.2,60.250619925799334,
,,,,,,,,161.82930823198694,26,scenes-39.jpg,,AC,1,vpnl,2023-11-16_20h52.54.533,midbabyloc,2023.2.2,60.250619925799334,
,,,,,,,,162.32861895598762,26,scenes-40.jpg,,AC,1,vpnl,2023-11-16_20h52.54.533,midbabyloc,2023.2.2,60.250619925799334,
,,,,,,,,162.83476542399148,27,faces-41.jpg,,AC,1,vpnl,2023-11-16_20h52.54.533,midbabyloc,2023.2.2,60.250619925799334,
,,,,,,,,163.3285849859967,27,faces-42.jpg,,AC,1,vpnl,2023-11-16_20h52.54.533,midbabyloc,2023.2.2,60.250619925799334,
,,,,,,,,163.8295175569947,27,faces-43.jpg,,AC,1,vpnl,2023-11-16_20h52.54.533,midbabyloc,2023.2.2,60.250619925799334,
,,,,,,,,164.32844261699938,27,faces-44.jpg,,AC,1,vpnl,2023-11-16_20h52.54.533,midbabyloc,2023.2.2,60.250619925799334,
,,,,,,,,164.82830494298832,27,faces-45.jpg,,AC,1,vpnl,2023-11-16_20h52.54.533,midbabyloc,2023.2.2,60.250619925799334,
,,,,,,,,165.3282998979994,27,faces-46.jpg,,AC,1,vpnl,2023-11-16_20h52.54.533,midbabyloc,2023.2.2,60.250619925799334,
,,,,,,,,165.82836095099628,27,faces-47.jpg,,AC,1,vpnl,2023-11-16_20h52.54.533,midbabyloc,2023.2.2,60.250619925799334,
,,,,,,,,166.3291202239925,27,faces-48.jpg,,AC,1,vpnl,2023-11-16_20h52.54.533,midbabyloc,2023.2.2,60.250619925799334,
,,,,,,,,166.8293966279889,28,cars-41.jpg,,AC,1,vpnl,2023-11-16_20h52.54.533,midbabyloc,2023.2.2,60.250619925799334,
,,,,,,,,167.32939177200024,28,cars-42.jpg,,AC,1,vpnl,2023-11-16_20h52.54.533,midbabyloc,2023.2.2,60.250619925799334,
,,,,,,,,167.82951231799962,28,cars-43.jpg,,AC,1,vpnl,2023-11-16_20h52.54.533,midbabyloc,2023.2.2,60.250619925799334,
,,,,,,,,168.32886219999637,28,cars-44.jpg,,AC,1,vpnl,2023-11-16_20h52.54.533,midbabyloc,2023.2.2,60.250619925799334,
,,,,,,,,168.82953694899334,28,cars-45.jpg,,AC,1,vpnl,2023-11-16_20h52.54.533,midbabyloc,2023.2.2,60.250619925799334,
,,,,,,,,169.32922674198926,28,cars-46.jpg,,AC,1,vpnl,2023-11-16_20h52.54.533,midbabyloc,2023.2.2,60.250619925799334,
,,,,,,,,169.8295884479885,28,cars-47.jpg,,AC,1,vpnl,2023-11-16_20h52.54.533,midbabyloc,2023.2.2,60.250619925799334,
,,,,,,,,170.32934797299094,28,cars-48.jpg,,AC,1,vpnl,2023-11-16_20h52.54.533,midbabyloc,2023.2.2,60.250619925799334,
,,,,,,,,170.82931518099213,29,scenes-41.jpg,,AC,1,vpnl,2023-11-16_20h52.54.533,midbabyloc,2023.2.2,60.250619925799334,
,,,,,,,,171.3294801939919,29,scenes-42.jpg,,AC,1,vpnl,2023-11-16_20h52.54.533,midbabyloc,2023.2.2,60.250619925799334,
,,,,,,,,171.82931634399574,29,scenes-43.jpg,,AC,1,vpnl,2023-11-16_20h52.54.533,midbabyloc,2023.2.2,60.250619925799334,
,,,,,,,,172.32888913199713,29,scenes-44.jpg,,AC,1,vpnl,2023-11-16_20h52.54.533,midbabyloc,2023.2.2,60.250619925799334,
,,,,,,,,172.82920958299655,29,scenes-45.jpg,,AC,1,vpnl,2023-11-16_20h52.54.533,midbabyloc,2023.2.2,60.250619925799334,
,,,,,,,,173.3301216109976,29,scenes-46.jpg,,AC,1,vpnl,2023-11-16_20h52.54.533,midbabyloc,2023.2.2,60.250619925799334,
,,,,,,,,173.8294405669876,29,scenes-47.jpg,,AC,1,vpnl,2023-11-16_20h52.54.533,midbabyloc,2023.2.2,60.250619925799334,
,,,,,,,,174.33107788399502,29,scenes-48.jpg,,AC,1,vpnl,2023-11-16_20h52.54.533,midbabyloc,2023.2.2,60.250619925799334,
,,,,,,,,174.83055742099532,30,hands-41.jpg,,AC,1,vpnl,2023-11-16_20h52.54.533,midbabyloc,2023.2.2,60.250619925799334,
,,,,,,,,175.32921920299123,30,hands-42.jpg,,AC,1,vpnl,2023-11-16_20h52.54.533,midbabyloc,2023.2.2,60.250619925799334,
,,,,,,,,175.83085242999368,30,hands-43.jpg,,AC,1,vpnl,2023-11-16_20h52.54.533,midbabyloc,2023.2.2,60.250619925799334,
,,,,,,,,176.33211161098734,30,hands-44.jpg,,AC,1,vpnl,2023-11-16_20h52.54.533,midbabyloc,2023.2.2,60.250619925799334,
,,,,,,,,176.8291056779999,30,hands-45.jpg,,AC,1,vpnl,2023-11-16_20h52.54.533,midbabyloc,2023.2.2,60.250619925799334,
,,,,,,,,177.32922679198964,30,hands-46.jpg,,AC,1,vpnl,2023-11-16_20h52.54.533,midbabyloc,2023.2.2,60.250619925799334,
,,,,,,,,177.82794434999232,30,hands-47.jpg,,AC,1,vpnl,2023-11-16_20h52.54.533,midbabyloc,2023.2.2,60.250619925799334,
,,,,,,,,178.32912674199906,30,hands-48.jpg,,AC,1,vpnl,2023-11-16_20h52.54.533,midbabyloc,2023.2.2,60.250619925799334,
,,,,,,,,178.82804973398743,31,blank-49.jpg,,AC,1,vpnl,2023-11-16_20h52.54.533,midbabyloc,2023.2.2,60.250619925799334,
,,,,,,,,179.32789055600006,31,blank-50.jpg,,AC,1,vpnl,2023-11-16_20h52.54.533,midbabyloc,2023.2.2,60.250619925799334,
,,,,,,,,179.8280266840011,31,blank-51.jpg,,AC,1,vpnl,2023-11-16_20h52.54.533,midbabyloc,2023.2.2,60.250619925799334,
,,,,,,,,180.32786042698717,31,blank-52.jpg,,AC,1,vpnl,2023-11-16_20h52.54.533,midbabyloc,2023.2.2,60.250619925799334,
,,,,,,,,180.82791491999524,31,blank-53.jpg,,AC,1,vpnl,2023-11-16_20h52.54.533,midbabyloc,2023.2.2,60.250619925799334,
,,,,,,,,181.32927244299208,31,blank-54.jpg,,AC,1,vpnl,2023-11-16_20h52.54.533,midbabyloc,2023.2.2,60.250619925799334,
,,,,,,,,181.82786499398935,31,blank-55.jpg,,AC,1,vpnl,2023-11-16_20h52.54.533,midbabyloc,2023.2.2,60.250619925799334,
,,,,,,,,182.3291594649927,31,blank-56.jpg,,AC,1,vpnl,2023-11-16_20h52.54.533,midbabyloc,2023.2.2,60.250619925799334,
,,,,,,,,182.82897907499864,32,cars-49.jpg,,AC,1,vpnl,2023-11-16_20h52.54.533,midbabyloc,2023.2.2,60.250619925799334,
,,,,,,,,183.33036325399007,32,cars-50.jpg,,AC,1,vpnl,2023-11-16_20h52.54.533,midbabyloc,2023.2.2,60.250619925799334,
,,,,,,,,183.8291634569905,32,cars-51.jpg,,AC,1,vpnl,2023-11-16_20h52.54.533,midbabyloc,2023.2.2,60.250619925799334,
,,,,,,,,184.33011730200087,32,cars-52.jpg,,AC,1,vpnl,2023-11-16_20h52.54.533,midbabyloc,2023.2.2,60.250619925799334,
,,,,,,,,184.82997441399493,32,cars-53.jpg,,AC,1,vpnl,2023-11-16_20h52.54.533,midbabyloc,2023.2.2,60.250619925799334,
,,,,,,,,185.32882576699194,32,cars-54.jpg,,AC,1,vpnl,2023-11-16_20h52.54.533,midbabyloc,2023.2.2,60.250619925799334,
,,,,,,,,185.83062336299918,32,cars-55.jpg,,AC,1,vpnl,2023-11-16_20h52.54.533,midbabyloc,2023.2.2,60.250619925799334,
,,,,,,,,186.33198906898906,32,cars-56.jpg,,AC,1,vpnl,2023-11-16_20h52.54.533,midbabyloc,2023.2.2,60.250619925799334,
,,,,,,,,186.82900891499594,33,hands-49.jpg,,AC,1,vpnl,2023-11-16_20h52.54.533,midbabyloc,2023.2.2,60.250619925799334,
,,,,,,,,187.32973465599935,33,hands-50.jpg,,AC,1,vpnl,2023-11-16_20h52.54.533,midbabyloc,2023.2.2,60.250619925799334,
,,,,,,,,187.82805067999288,33,hands-51.jpg,,AC,1,vpnl,2023-11-16_20h52.54.533,midbabyloc,2023.2.2,60.250619925799334,
,,,,,,,,188.32886759699613,33,hands-52.jpg,,AC,1,vpnl,2023-11-16_20h52.54.533,midbabyloc,2023.2.2,60.250619925799334,
,,,,,,,,188.82869123699493,33,hands-53.jpg,,AC,1,vpnl,2023-11-16_20h52.54.533,midbabyloc,2023.2.2,60.250619925799334,
,,,,,,,,189.32873872599157,33,hands-54.jpg,,AC,1,vpnl,2023-11-16_20h52.54.533,midbabyloc,2023.2.2,60.250619925799334,
,,,,,,,,189.82887829600077,33,hands-55.jpg,,AC,1,vpnl,2023-11-16_20h52.54.533,midbabyloc,2023.2.2,60.250619925799334,
,,,,,,,,190.32878425499075,33,hands-56.jpg,,AC,1,vpnl,2023-11-16_20h52.54.533,midbabyloc,2023.2.2,60.250619925799334,
,,,,,,,,190.82892449799692,34,blank-57.jpg,,AC,1,vpnl,2023-11-16_20h52.54.533,midbabyloc,2023.2.2,60.250619925799334,
,,,,,,,,191.32880514999852,34,blank-58.jpg,,AC,1,vpnl,2023-11-16_20h52.54.533,midbabyloc,2023.2.2,60.250619925799334,
,,,,,,,,191.82889080299356,34,blank-59.jpg,,AC,1,vpnl,2023-11-16_20h52.54.533,midbabyloc,2023.2.2,60.250619925799334,
,,,,,,,,192.32877422799356,34,blank-60.jpg,,AC,1,vpnl,2023-11-16_20h52.54.533,midbabyloc,2023.2.2,60.250619925799334,
,,,,,,,,192.8279273109947,34,blank-61.jpg,,AC,1,vpnl,2023-11-16_20h52.54.533,midbabyloc,2023.2.2,60.250619925799334,
,,,,,,,,193.3290655640012,34,blank-62.jpg,,AC,1,vpnl,2023-11-16_20h52.54.533,midbabyloc,2023.2.2,60.250619925799334,
,,,,,,,,193.82833112598746,34,blank-63.jpg,,AC,1,vpnl,2023-11-16_20h52.54.533,midbabyloc,2023.2.2,60.250619925799334,
,,,,,,,,194.32870322698727,34,blank-64.jpg,,AC,1,vpnl,2023-11-16_20h52.54.533,midbabyloc,2023.2.2,60.250619925799334,
,,,,,,,,194.82930032799777,35,faces-49.jpg,,AC,1,vpnl,2023-11-16_20h52.54.533,midbabyloc,2023.2.2,60.250619925799334,
,,,,,,,,195.3296034859959,35,faces-50.jpg,,AC,1,vpnl,2023-11-16_20h52.54.533,midbabyloc,2023.2.2,60.250619925799334,
,,,,,,,,195.83022040399374,35,faces-51.jpg,,AC,1,vpnl,2023-11-16_20h52.54.533,midbabyloc,2023.2.2,60.250619925799334,
,,,,,,,,196.3293243549997,35,faces-52.jpg,,AC,1,vpnl,2023-11-16_20h52.54.533,midbabyloc,2023.2.2,60.250619925799334,
,,,,,,,,196.82825073599815,35,faces-53.jpg,,AC,1,vpnl,2023-11-16_20h52.54.533,midbabyloc,2023.2.2,60.250619925799334,
,,,,,,,,197.32775483699515,35,faces-54.jpg,,AC,1,vpnl,2023-11-16_20h52.54.533,midbabyloc,2023.2.2,60.250619925799334,
,,,,,,,,197.827697419998,35,faces-55.jpg,,AC,1,vpnl,2023-11-16_20h52.54.533,midbabyloc,2023.2.2,60.250619925799334,
,,,,,,,,198.32766436299426,35,faces-56.jpg,,AC,1,vpnl,2023-11-16_20h52.54.533,midbabyloc,2023.2.2,60.250619925799334,
,,,,,,,,198.8276544209948,36,scenes-49.jpg,,AC,1,vpnl,2023-11-16_20h52.54.533,midbabyloc,2023.2.2,60.250619925799334,
,,,,,,,,199.32766248099506,36,scenes-50.jpg,,AC,1,vpnl,2023-11-16_20h52.54.533,midbabyloc,2023.2.2,60.250619925799334,
,,,,,,,,199.82763118599541,36,scenes-51.jpg,,AC,1,vpnl,2023-11-16_20h52.54.533,midbabyloc,2023.2.2,60.250619925799334,
,,,,,,,,200.32759808599076,36,scenes-52.jpg,,AC,1,vpnl,2023-11-16_20h52.54.533,midbabyloc,2023.2.2,60.250619925799334,
,,,,,,,,200.82758207900042,36,scenes-53.jpg,,AC,1,vpnl,2023-11-16_20h52.54.533,midbabyloc,2023.2.2,60.250619925799334,
,,,,,,,,201.32840503999614,36,scenes-54.jpg,,AC,1,vpnl,2023-11-16_20h52.54.533,midbabyloc,2023.2.2,60.250619925799334,
,,,,,,,,201.8277024400013,36,scenes-55.jpg,,AC,1,vpnl,2023-11-16_20h52.54.533,midbabyloc,2023.2.2,60.250619925799334,
,,,,,,,,202.3276982799871,36,scenes-56.jpg,,AC,1,vpnl,2023-11-16_20h52.54.533,midbabyloc,2023.2.2,60.250619925799334,
,,,,,,,,202.82761972300068,37,faces-57.jpg,,AC,1,vpnl,2023-11-16_20h52.54.533,midbabyloc,2023.2.2,60.250619925799334,
,,,,,,,,203.32747621399176,37,faces-58.jpg,,AC,1,vpnl,2023-11-16_20h52.54.533,midbabyloc,2023.2.2,60.250619925799334,
,,,,,,,,203.8275259709917,37,faces-59.jpg,,AC,1,vpnl,2023-11-16_20h52.54.533,midbabyloc,2023.2.2,60.250619925799334,
,,,,,,,,204.32756754598813,37,faces-60.jpg,,AC,1,vpnl,2023-11-16_20h52.54.533,midbabyloc,2023.2.2,60.250619925799334,
,,,,,,,,204.8274937029928,37,faces-61.jpg,,AC,1,vpnl,2023-11-16_20h52.54.533,midbabyloc,2023.2.2,60.250619925799334,
,,,,,,,,205.32754903798923,37,faces-62.jpg,,AC,1,vpnl,2023-11-16_20h52.54.533,midbabyloc,2023.2.2,60.250619925799334,
,,,,,,,,205.82749052699364,37,faces-63.jpg,,AC,1,vpnl,2023-11-16_20h52.54.533,midbabyloc,2023.2.2,60.250619925799334,
,,,,,,,,206.33096204599133,37,faces-64.jpg,,AC,1,vpnl,2023-11-16_20h52.54.533,midbabyloc,2023.2.2,60.250619925799334,
,,,,,,,,206.8275575759908,38,blank-65.jpg,,AC,1,vpnl,2023-11-16_20h52.54.533,midbabyloc,2023.2.2,60.250619925799334,
,,,,,,,,207.3276039649936,38,blank-66.jpg,,AC,1,vpnl,2023-11-16_20h52.54.533,midbabyloc,2023.2.2,60.250619925799334,
,,,,,,,,207.82760573198902,38,blank-67.jpg,,AC,1,vpnl,2023-11-16_20h52.54.533,midbabyloc,2023.2.2,60.250619925799334,
,,,,,,,,208.32803673300077,38,blank-68.jpg,,AC,1,vpnl,2023-11-16_20h52.54.533,midbabyloc,2023.2.2,60.250619925799334,
,,,,,,,,208.8277165489999,38,blank-69.jpg,,AC,1,vpnl,2023-11-16_20h52.54.533,midbabyloc,2023.2.2,60.250619925799334,
,,,,,,,,209.3281176169985,38,blank-70.jpg,,AC,1,vpnl,2023-11-16_20h52.54.533,midbabyloc,2023.2.2,60.250619925799334,
,,,,,,,,209.8279510299908,38,blank-71.jpg,,AC,1,vpnl,2023-11-16_20h52.54.533,midbabyloc,2023.2.2,60.250619925799334,
,,,,,,,,210.329086437996,38,blank-72.jpg,,AC,1,vpnl,2023-11-16_20h52.54.533,midbabyloc,2023.2.2,60.250619925799334,
,,,,,,,,210.82904343199334,39,hands-57.jpg,,AC,1,vpnl,2023-11-16_20h52.54.533,midbabyloc,2023.2.2,60.250619925799334,
,,,,,,,,211.32902178198856,39,hands-58.jpg,,AC,1,vpnl,2023-11-16_20h52.54.533,midbabyloc,2023.2.2,60.250619925799334,
,,,,,,,,211.82970078899234,39,hands-59.jpg,,AC,1,vpnl,2023-11-16_20h52.54.533,midbabyloc,2023.2.2,60.250619925799334,
,,,,,,,,212.32749135099584,39,hands-60.jpg,,AC,1,vpnl,2023-11-16_20h52.54.533,midbabyloc,2023.2.2,60.250619925799334,
,,,,,,,,212.827431230995,39,hands-61.jpg,,AC,1,vpnl,2023-11-16_20h52.54.533,midbabyloc,2023.2.2,60.250619925799334,
,,,,,,,,213.3277585879987,39,hands-62.jpg,,AC,1,vpnl,2023-11-16_20h52.54.533,midbabyloc,2023.2.2,60.250619925799334,
,,,,,,,,213.827293164999,39,hands-63.jpg,,AC,1,vpnl,2023-11-16_20h52.54.533,midbabyloc,2023.2.2,60.250619925799334,
,,,,,,,,214.32734360799077,39,hands-64.jpg,,AC,1,vpnl,2023-11-16_20h52.54.533,midbabyloc,2023.2.2,60.250619925799334,
,,,,,,,,214.82731111199246,40,scenes-57.jpg,,AC,1,vpnl,2023-11-16_20h52.54.533,midbabyloc,2023.2.2,60.250619925799334,
,,,,,,,,215.32733389698842,40,scenes-58.jpg,,AC,1,vpnl,2023-11-16_20h52.54.533,midbabyloc,2023.2.2,60.250619925799334,
,,,,,,,,215.82734332999098,40,scenes-59.jpg,,AC,1,vpnl,2023-11-16_20h52.54.533,midbabyloc,2023.2.2,60.250619925799334,
,,,,,,,,216.32740893799928,40,scenes-60.jpg,,AC,1,vpnl,2023-11-16_20h52.54.533,midbabyloc,2023.2.2,60.250619925799334,
,,,,,,,,216.82731122299447,40,scenes-61.jpg,,AC,1,vpnl,2023-11-16_20h52.54.533,midbabyloc,2023.2.2,60.250619925799334,
,,,,,,,,217.32730106898816,40,scenes-62.jpg,,AC,1,vpnl,2023-11-16_20h52.54.533,midbabyloc,2023.2.2,60.250619925799334,
,,,,,,,,217.82737321499735,40,scenes-63.jpg,,AC,1,vpnl,2023-11-16_20h52.54.533,midbabyloc,2023.2.2,60.250619925799334,
,,,,,,,,218.32720492499357,40,scenes-64.jpg,,AC,1,vpnl,2023-11-16_20h52.54.533,midbabyloc,2023.2.2,60.250619925799334,
,,,,,,,,218.82720797799993,41,cars-57.jpg,,AC,1,vpnl,2023-11-16_20h52.54.533,midbabyloc,2023.2.2,60.250619925799334,
,,,,,,,,219.3276700229908,41,cars-58.jpg,,AC,1,vpnl,2023-11-16_20h52.54.533,midbabyloc,2023.2.2,60.250619925799334,
,,,,,,,,219.82730081200134,41,cars-59.jpg,,AC,1,vpnl,2023-11-16_20h52.54.533,midbabyloc,2023.2.2,60.250619925799334,
,,,,,,,,220.32735434798815,41,cars-60.jpg,,AC,1,vpnl,2023-11-16_20h52.54.533,midbabyloc,2023.2.2,60.250619925799334,
,,,,,,,,220.8273409229878,41,cars-61.jpg,,AC,1,vpnl,2023-11-16_20h52.54.533,midbabyloc,2023.2.2,60.250619925799334,
,,,,,,,,221.32718445599312,41,cars-62.jpg,,AC,1,vpnl,2023-11-16_20h52.54.533,midbabyloc,2023.2.2,60.250619925799334,
,,,,,,,,221.827195535996,41,cars-63.jpg,,AC,1,vpnl,2023-11-16_20h52.54.533,midbabyloc,2023.2.2,60.250619925799334,
,,,,,,,,222.32723006399465,41,cars-64.jpg,,AC,1,vpnl,2023-11-16_20h52.54.533,midbabyloc,2023.2.2,60.250619925799334,
,,,,,,,,222.82721136100008,42,blank-73.jpg,,AC,1,vpnl,2023-11-16_20h52.54.533,midbabyloc,2023.2.2,60.250619925799334,
,,,,,,,,223.32721393799875,42,blank-74.jpg,,AC,1,vpnl,2023-11-16_20h52.54.533,midbabyloc,2023.2.2,60.250619925799334,
,,,,,,,,223.82718082198699,42,blank-75.jpg,,AC,1,vpnl,2023-11-16_20h52.54.533,midbabyloc,2023.2.2,60.250619925799334,
,,,,,,,,224.32715741998982,42,blank-76.jpg,,AC,1,vpnl,2023-11-16_20h52.54.533,midbabyloc,2023.2.2,60.250619925799334,
,,,,,,,,224.82719660899602,42,blank-77.jpg,,AC,1,vpnl,2023-11-16_20h52.54.533,midbabyloc,2023.2.2,60.250619925799334,
,,,,,,,,225.32714710499567,42,blank-78.jpg,,AC,1,vpnl,2023-11-16_20h52.54.533,midbabyloc,2023.2.2,60.250619925799334,
,,,,,,,,225.82724518098985,42,blank-79.jpg,,AC,1,vpnl,2023-11-16_20h52.54.533,midbabyloc,2023.2.2,60.250619925799334,
,,,,,,,,226.3272734159982,42,blank-80.jpg,,AC,1,vpnl,2023-11-16_20h52.54.533,midbabyloc,2023.2.2,60.250619925799334,
